"Time (s)","Gyroscope x (rad/s)","Gyroscope y (rad/s)","Gyroscope z (rad/s)","Absolute (rad/s)"
8.282208117E-3,-4.528746754E-2,1.962530017E-1,-1.807706058E-2,2.022201165E-1
1.823920826E-2,-6.377795711E-3,1.924590170E-1,-1.552025974E-2,1.931890990E-1
2.819720819E-2,2.914158255E-2,1.887252629E-1,-8.382989094E-3,1.911458375E-1
3.815420833E-2,6.093236431E-2,1.802340746E-1,-1.440799795E-3,1.902607436E-1
4.811220826E-2,8.985482156E-2,1.694799662E-1,8.251775056E-3,1.920037491E-1
5.806920817E-2,1.136120781E-1,1.549259871E-1,7.110040635E-3,1.922506657E-1
6.802720833E-2,1.356324255E-1,1.337916851E-1,6.989133544E-3,1.906442180E-1
7.798420824E-2,1.473641843E-1,1.177530587E-1,-1.426455565E-3,1.886372720E-1
8.794220816E-2,1.475841701E-1,1.031421572E-1,3.846869804E-3,1.800949479E-1
9.789920831E-2,1.360063404E-1,8.716955036E-2,1.181352418E-2,1.619747341E-1
1.078572082E-1,1.155053303E-1,7.551449537E-2,2.240358293E-2,1.398064407E-1
1.178152082E-1,8.958113939E-2,6.422367692E-2,2.344672009E-2,1.126907711E-1
1.277722083E-1,5.933402479E-2,4.936110601E-2,2.317188121E-2,8.058524283E-2
1.377302082E-1,2.758532390E-2,3.978105262E-2,2.521759644E-2,5.458396662E-2
1.476872081E-1,-7.955890149E-3,3.183311224E-2,3.347898647E-2,4.687734803E-2
1.576452083E-1,-4.390129074E-2,2.322695032E-2,4.219092056E-2,6.516815425E-2
1.676022082E-1,-7.291829586E-2,1.278922334E-2,4.473823681E-2,8.649943317E-2
1.775602081E-1,-9.582707286E-2,2.916885074E-3,4.253686592E-2,1.048843223E-1
1.875172083E-1,-1.097804382E-1,-9.305693209E-3,3.393405676E-2,1.152816584E-1
1.974752082E-1,-1.205204278E-1,-1.574111916E-2,2.825882472E-2,1.247858867E-1
2.074322081E-1,-1.239556372E-1,-2.051164024E-2,3.163890541E-2,1.295636821E-1
2.173902083E-1,-1.118832603E-1,-2.542676963E-2,3.679239005E-2,1.204909313E-1
2.273472082E-1,-9.436712414E-2,-3.048810549E-2,3.835140541E-2,1.063273671E-1
2.373052081E-1,-6.660109013E-2,-3.409024328E-2,3.257298097E-2,8.160177071E-2
2.472622083E-1,-3.154563904E-2,-4.301742464E-2,3.099425882E-2,6.169497747E-2
2.572202082E-1,3.594764508E-3,-4.041085020E-2,3.404635191E-2,5.296331961E-2
2.671772083E-1,4.083560780E-2,-4.238744825E-2,4.822954908E-2,7.609423130E-2
2.771352082E-1,7.583230734E-2,-4.641887173E-2,5.188425630E-2,1.029428314E-1
2.870932082E-1,1.078770608E-1,-5.013770983E-2,5.106959492E-2,1.294579226E-1
2.970502083E-1,1.365891248E-1,-5.357355624E-2,4.897612333E-2,1.546782971E-1
3.070082082E-1,1.614209712E-1,-5.843834952E-2,4.279439524E-2,1.769269083E-1
3.169652082E-1,1.817423999E-1,-5.728320777E-2,4.622335359E-2,1.960822895E-1
3.269232083E-1,1.949591339E-1,-6.103427336E-2,4.850381985E-2,2.099687285E-1
3.368802082E-1,2.035714537E-1,-6.837654859E-2,4.689217359E-2,2.198080187E-1
3.468382081E-1,2.074854970E-1,-7.468344271E-2,4.453793913E-2,2.249699449E-1
3.567952083E-1,1.978284121E-1,-8.121495694E-2,4.370628297E-2,2.182709074E-1
3.667532082E-1,1.836721301E-1,-8.696153015E-2,4.762192816E-2,2.087237580E-1
3.767102081E-1,1.545675993E-1,-8.847805858E-2,5.122637749E-2,1.853204019E-1
3.866682083E-1,1.202367842E-1,-9.334205836E-2,5.940254778E-2,1.633961041E-1
3.966252082E-1,8.377349377E-2,-9.294543415E-2,5.875835568E-2,1.382367402E-1
4.065832081E-1,3.802490979E-2,-9.336195141E-2,5.825821310E-2,1.164318132E-1
4.165402083E-1,-5.268389359E-4,-9.441945702E-2,5.539948493E-2,1.094733500E-1
4.264982082E-1,-3.661400080E-2,-9.526820481E-2,5.327881128E-2,1.151314363E-1
4.364552081E-1,-6.298594177E-2,-9.666749835E-2,4.788104445E-2,1.249176870E-1
4.464132083E-1,-8.042298257E-2,-1.038676202E-1,3.917197511E-2,1.370794744E-1
4.563712082E-1,-8.659611642E-2,-1.075022668E-1,3.048544005E-2,1.413682666E-1
4.663282083E-1,-9.330275655E-2,-1.088908389E-1,2.375456691E-2,1.453509499E-1
4.762862083E-1,-8.888429403E-2,-1.098243967E-1,2.257965878E-2,1.430791977E-1
4.862432082E-1,-7.652989030E-2,-1.056786552E-1,1.887706667E-2,1.318375740E-1
4.962012083E-1,-6.250826269E-2,-1.050140858E-1,1.329714619E-2,1.229310994E-1
5.061582082E-1,-4.041307792E-2,-1.004691347E-1,9.594020434E-3,1.087166461E-1
5.161162082E-1,-1.323303115E-2,-9.872585535E-2,7.212711498E-3,9.986956911E-2
5.260732083E-1,1.502683666E-2,-9.530103207E-2,9.277460165E-3,9.692349457E-2
5.360312082E-1,4.671765119E-2,-8.786626160E-2,5.652023479E-3,9.967429072E-2
5.459882081E-1,7.810753584E-2,-8.659859747E-2,-3.025620244E-3,1.166587271E-1
5.559462083E-1,1.073978618E-1,-8.271931857E-2,-1.088520419E-2,1.359973310E-1
5.659032082E-1,1.321724504E-1,-7.531919330E-2,-1.846216246E-2,1.532429084E-1
5.758612081E-1,1.457560807E-1,-6.812434644E-2,-2.148182318E-2,1.623182996E-1
5.858182083E-1,1.551408023E-1,-5.426259339E-2,-2.329623327E-2,1.659994339E-1
5.957762082E-1,1.536450833E-1,-4.273342341E-2,-1.869479939E-2,1.605691522E-1
6.057332081E-1,1.490205079E-1,-3.300383314E-2,-1.831769571E-2,1.537267145E-1
6.156912083E-1,1.356055439E-1,-2.343999781E-2,-2.181063220E-2,1.393341333E-1
6.256492082E-1,1.120544001E-1,-1.493279636E-2,-1.815597713E-2,1.144937400E-1
6.356054998E-1,8.375885338E-2,-3.418464446E-3,-9.752032347E-3,8.439391893E-2
6.455635000E-1,5.205845088E-2,6.760137156E-3,-7.591142319E-3,5.304156110E-2
6.555204999E-1,1.311450265E-2,1.598589495E-2,-2.756021917E-3,2.085988193E-2
6.654784998E-1,-2.194255032E-2,2.265684679E-2,-1.014629379E-2,3.313239349E-2
6.754355000E-1,-5.875470489E-2,2.602951974E-2,-1.899397373E-2,6.701061321E-2
6.853934999E-1,-9.571351856E-2,3.609760106E-2,-2.090372518E-2,1.044082380E-1
6.953504998E-1,-1.196807399E-1,4.716930166E-2,-2.201203257E-2,1.305103525E-1
7.053085000E-1,-1.387023628E-1,5.669888854E-2,-2.039256319E-2,1.512248856E-1
7.152654999E-1,-1.542089581E-1,5.821685866E-2,-2.170060948E-2,1.662543890E-1
7.252234998E-1,-1.523444802E-1,6.325183064E-2,-2.710442990E-2,1.671654415E-1
7.351805000E-1,-1.490140408E-1,6.657347083E-2,-3.608743474E-2,1.671511721E-1
7.451384999E-1,-1.376348883E-1,7.448439300E-2,-3.549568355E-2,1.604719004E-1
7.550954998E-1,-1.246765703E-1,8.233467489E-2,-3.190278634E-2,1.527777263E-1
7.650535000E-1,-1.104118749E-1,8.713369071E-2,-2.883828431E-2,1.435782324E-1
7.750104999E-1,-8.707156777E-2,9.106136113E-2,-3.565930948E-2,1.309397409E-1
7.849684998E-1,-6.415906549E-2,9.548833221E-2,-4.587812349E-2,1.238515623E-1
7.949264999E-1,-3.528721258E-2,9.905309230E-2,-5.207591504E-2,1.173396923E-1
8.048834999E-1,-6.740789860E-3,1.033586189E-1,-5.307033658E-2,1.163825716E-1
8.148414998E-1,2.101103961E-2,1.073277667E-1,-5.336638913E-2,1.216909396E-1
8.247984999E-1,4.723811895E-2,1.058228165E-1,-5.446787551E-2,1.280494351E-1
8.347564999E-1,7.067278773E-2,1.007393375E-1,-5.758021027E-2,1.358622010E-1
8.447135000E-1,8.501417190E-2,9.775233269E-2,-6.486076117E-2,1.448787297E-1
8.546714999E-1,9.147384018E-2,9.911396354E-2,-6.391227245E-2,1.492508619E-1
8.646284998E-1,8.310485631E-2,1.007185206E-1,-5.850552022E-2,1.430857555E-1
8.745865000E-1,6.530615687E-2,9.844423085E-2,-5.076492578E-2,1.285816410E-1
8.845434999E-1,4.274598882E-2,1.005353481E-1,-4.427773505E-2,1.178774516E-1
8.945014998E-1,1.614411920E-2,1.012715697E-1,-4.036141187E-2,1.102071095E-1
9.044585000E-1,-1.649531722E-2,9.636336565E-2,-4.599186778E-2,1.080427954E-1
9.144164999E-1,-4.574039206E-2,9.373388439E-2,-3.897533193E-2,1.113431679E-1
9.243734998E-1,-7.105613500E-2,8.715747297E-2,-3.748529404E-2,1.185350019E-1
9.343315000E-1,-1.028946638E-1,8.335766941E-2,-3.486712277E-2,1.369362229E-1
9.442884999E-1,-1.296565086E-1,7.812561840E-2,-3.402876109E-2,1.551527604E-1
9.542464998E-1,-1.536536217E-1,7.658328116E-2,-4.074200988E-2,1.764492725E-1
9.642045000E-1,-1.716928184E-1,7.501894236E-2,-4.203443974E-2,1.920238520E-1
9.741614999E-1,-1.828642339E-1,7.528583705E-2,-3.750189394E-2,2.012800967E-1
9.841194998E-1,-1.891391724E-1,7.719665766E-2,-3.332418948E-2,2.069865989E-1
9.940764999E-1,-1.809460521E-1,7.411074638E-2,-2.631602064E-2,1.972977684E-1
1.004034500E0,-1.679993570E-1,6.992984563E-2,-2.038595825E-2,1.831107713E-1
1.013991500E0,-1.493526995E-1,6.291352957E-2,-1.963243261E-2,1.632475833E-1
1.023949500E0,-1.212017536E-1,6.034012139E-2,-1.620041952E-2,1.363570641E-1
1.033906500E0,-9.240908921E-2,6.032566726E-2,-1.903620549E-2,1.119866198E-1
1.043864500E0,-6.244612858E-2,5.602892488E-2,-1.883992925E-2,8.598664043E-2
1.053821500E0,-2.955404483E-2,5.212752521E-2,-1.979400031E-2,6.310723333E-2
1.063779500E0,3.163687885E-3,4.658894986E-2,-1.840409636E-2,5.019213019E-2
1.073736500E0,3.514621779E-2,4.372210056E-2,-1.933447644E-2,5.933549259E-2
1.083694500E0,6.378665566E-2,3.882774711E-2,-1.730594784E-2,7.665394456E-2
1.093651500E0,8.664613962E-2,3.082575835E-2,-1.501726825E-2,9.318422203E-2
1.103609500E0,1.136766970E-1,2.466719970E-2,-1.155249681E-2,1.168944925E-1
1.113566500E0,1.289201081E-1,1.731825620E-2,-6.683323532E-3,1.302496951E-1
1.123524500E0,1.313550323E-1,8.562047966E-3,-1.496817917E-3,1.316422943E-1
1.133482500E0,1.231592521E-1,-3.723045811E-4,6.524029188E-3,1.233324894E-1
1.143439500E0,1.072138399E-1,-4.874644801E-3,1.093981601E-2,1.078807175E-1
1.153397500E0,8.746268600E-2,-1.246979833E-2,1.312439609E-2,8.931666746E-2
1.163354500E0,5.780678615E-2,-1.837083139E-2,1.341894176E-2,6.212229848E-2
1.173312500E0,3.031808138E-2,-2.411335148E-2,1.873098314E-2,4.302893802E-2
1.183269500E0,2.138110809E-3,-3.496173397E-2,2.929494530E-2,4.566276579E-2
1.193227500E0,-2.950699255E-2,-4.471020773E-2,3.444567323E-2,6.368806551E-2
1.203184500E0,-5.120483041E-2,-5.785317346E-2,3.239291161E-2,8.377484742E-2
1.213142500E0,-7.131107897E-2,-6.912194192E-2,3.088835068E-2,1.040057837E-1
1.223099500E0,-9.028743207E-2,-7.953117043E-2,2.930962853E-2,1.238389349E-1
1.233057500E0,-1.034287959E-1,-8.886115998E-2,3.390107304E-2,1.405101574E-1
1.243014500E0,-1.133157834E-1,-9.409932792E-2,4.083647579E-2,1.528488405E-1
1.252972500E0,-1.133504882E-1,-9.877762944E-2,4.389541224E-2,1.566274576E-1
1.262929500E0,-1.086689159E-1,-1.050712094E-1,4.483204335E-2,1.576667512E-1
1.272887500E0,-9.356410056E-2,-1.109405980E-1,4.410114139E-2,1.516804795E-1
1.282844500E0,-6.843264401E-2,-1.106673554E-1,4.335732013E-2,1.371500912E-1
1.292802500E0,-4.215504974E-2,-1.162381843E-1,4.484293610E-2,1.315266232E-1
1.302760500E0,-9.593378752E-3,-1.183258370E-1,4.788426682E-2,1.280075764E-1
1.312717500E0,2.471273392E-2,-1.189277843E-1,4.957743734E-2,1.311962628E-1
1.322675500E0,5.594602227E-2,-1.224588752E-1,4.383672774E-2,1.415902264E-1
1.332632500E0,9.113065153E-2,-1.238799989E-1,3.601308912E-2,1.579493348E-1
1.342590500E0,1.165119112E-1,-1.180071980E-1,2.989554033E-2,1.685065801E-1
1.352547500E0,1.346993446E-1,-1.118391231E-1,3.188193589E-2,1.779560640E-1
1.362505500E0,1.516447663E-1,-1.031114087E-1,3.545616567E-2,1.867759016E-1
1.372462500E0,1.594867110E-1,-9.916295111E-2,3.950881213E-2,1.919120843E-1
1.382420500E0,1.647552401E-1,-9.655172378E-2,4.244707897E-2,1.956227978E-1
1.392377500E0,1.663830578E-1,-9.256850928E-2,3.456968814E-2,1.935130853E-1
1.402335500E0,1.542819291E-1,-8.963823318E-2,3.564720601E-2,1.819578242E-1
1.412292500E0,1.392855793E-1,-8.313735574E-2,3.631134331E-2,1.662251671E-1
1.422250500E0,1.176183671E-1,-7.579741627E-2,3.922218084E-2,1.453193313E-1
1.432207500E0,8.987692744E-2,-6.997375190E-2,4.120397568E-2,1.211278484E-1
1.442165500E0,5.954192579E-2,-6.387352198E-2,4.186950624E-2,9.684071091E-2
1.452122500E0,2.463079989E-2,-5.381488055E-2,3.622451425E-2,6.938971901E-2
1.462080500E0,-6.846433505E-3,-4.570689052E-2,3.493687510E-2,5.793598826E-2
1.472037500E0,-3.029315174E-2,-3.407077864E-2,3.559053317E-2,5.783752286E-2
1.481995500E0,-4.949614033E-2,-2.998788655E-2,4.063881934E-2,7.071530870E-2
1.491953500E0,-6.184034795E-2,-2.499178797E-2,4.193548486E-2,7.878707375E-2
1.501910500E0,-6.832381338E-2,-2.238508314E-2,3.936446831E-2,8.196826695E-2
1.511868500E0,-7.185773551E-2,-1.606644690E-2,3.876173496E-2,8.321139926E-2
1.521825500E0,-6.407251209E-2,-1.069005858E-2,3.248013556E-2,7.262591386E-2
1.531783500E0,-5.508958921E-2,-4.317561630E-3,2.923668548E-2,6.251630152E-2
1.541740500E0,-3.526714817E-2,1.324877609E-3,2.863960341E-2,4.545056571E-2
1.551698500E0,-1.391809806E-2,6.275297608E-3,2.854944766E-2,3.237535753E-2
1.561655500E0,1.154997665E-2,1.166979596E-2,2.774970233E-2,3.224332610E-2
1.571613500E0,3.699799627E-2,1.153178420E-2,2.418896742E-2,4.568303755E-2
1.581570500E0,6.362215430E-2,1.538564451E-2,2.036946267E-2,6.855225440E-2
1.591528500E0,9.861946851E-2,2.098107710E-2,1.258571632E-2,1.016090814E-1
1.601485500E0,1.233514473E-1,2.462561242E-2,1.226054411E-2,1.263816493E-1
1.611443500E0,1.419643611E-1,2.470719069E-2,8.865823038E-3,1.443708000E-1
1.621400500E0,1.532356590E-1,2.726995014E-2,5.118222907E-3,1.557273694E-1
1.631359333E0,1.574119329E-1,3.108769655E-2,1.370306127E-3,1.604582165E-1
1.641316333E0,1.543514282E-1,3.842470422E-2,-4.438847303E-3,1.591242428E-1
1.651274333E0,1.453226954E-1,4.341155663E-2,-1.012467127E-2,1.520057828E-1
1.661232333E0,1.300230920E-1,4.878075421E-2,-6.976014934E-3,1.390475862E-1
1.671189333E0,1.069366932E-1,5.146040022E-2,-6.067536771E-3,1.188294751E-1
1.681147333E0,7.842329144E-2,5.314325541E-2,-2.482122742E-3,9.476591777E-2
1.691104333E0,4.057621956E-2,5.911552534E-2,-3.568552434E-3,7.179003758E-2
1.701062333E0,6.524511613E-3,6.646984071E-2,-9.213387966E-3,6.742177314E-2
1.711019333E0,-2.660228126E-2,7.327051461E-2,-1.490703691E-2,7.936289705E-2
1.720977333E0,-6.270649284E-2,7.834596932E-2,-1.921949163E-2,1.021742825E-1
1.730934333E0,-9.248249233E-2,8.273410797E-2,-1.791575924E-2,1.253751109E-1
1.740892333E0,-1.156163067E-1,8.753845096E-2,-2.054776251E-2,1.464661098E-1
1.750849333E0,-1.346863210E-1,9.064596146E-2,-2.806840278E-2,1.647571869E-1
1.760807333E0,-1.445706338E-1,9.470222145E-2,-3.003115393E-2,1.754167868E-1
1.770764333E0,-1.427297741E-1,1.018397361E-1,-3.222231194E-2,1.782733790E-1
1.780722333E0,-1.282823831E-1,1.015473232E-1,-3.609960899E-2,1.675452489E-1
1.790679333E0,-1.108039767E-1,1.051708981E-1,-3.195651621E-2,1.560758085E-1
1.800637333E0,-9.661492705E-2,1.060396209E-1,-2.813807689E-2,1.461868555E-1
1.810594333E0,-7.599397749E-2,1.115855202E-1,-2.617813088E-2,1.375198439E-1
1.820552333E0,-5.306416750E-2,1.131482646E-1,-2.867670916E-2,1.282212514E-1
1.830510333E0,-2.730376832E-2,1.164293140E-1,-3.847642988E-2,1.256253023E-1
1.840467333E0,2.966998145E-4,1.110816896E-1,-4.509252310E-2,1.198856348E-1
1.850425333E0,2.467218786E-2,1.127767190E-1,-4.659593850E-2,1.244929183E-1
1.860382333E0,4.491913691E-2,1.098752022E-1,-4.443318397E-2,1.267461903E-1
1.870340333E0,6.446833163E-2,1.059466228E-1,-4.712465405E-2,1.326709678E-1
1.880297333E0,7.906191796E-2,1.018405631E-1,-5.590002984E-2,1.405243769E-1
1.890255333E0,8.906589448E-2,9.817848355E-2,-6.643800437E-2,1.482759475E-1
1.900212333E0,9.667001665E-2,9.949675202E-2,-7.016882300E-2,1.554617622E-1
1.910170333E0,8.492300659E-2,9.620371461E-2,-6.422853470E-2,1.435004405E-1
1.920127333E0,7.016909122E-2,9.330806136E-2,-5.187013745E-2,1.277521305E-1
1.930085333E0,3.997788951E-2,8.879733831E-2,-4.607285932E-2,1.077307166E-1
1.940042333E0,1.163226832E-2,8.624362946E-2,-4.332340881E-2,9.721209307E-2
1.950000333E0,-2.119650505E-2,7.975022495E-2,-4.994082823E-2,9.645453090E-2
1.959957333E0,-4.908006638E-2,7.551766187E-2,-5.388843641E-2,1.049558657E-1
1.969915333E0,-8.441630751E-2,7.007396966E-2,-4.642836004E-2,1.191304613E-1
1.979872333E0,-1.159774289E-1,6.388744712E-2,-3.971186653E-2,1.382367616E-1
1.989830333E0,-1.408004761E-1,5.111013725E-2,-3.915766254E-2,1.548235858E-1
1.999788333E0,-1.597568691E-1,4.309349135E-2,-4.511355609E-2,1.715066738E-1
2.009745333E0,-1.696868986E-1,3.366475180E-2,-5.318775401E-2,1.809859007E-1
2.019703333E0,-1.713228822E-1,2.769874036E-2,-5.404023454E-2,1.817666007E-1
2.029660333E0,-1.686866283E-1,2.228426747E-2,-4.472875595E-2,1.759330235E-1
2.039618333E0,-1.611892879E-1,1.761681214E-2,-2.982411161E-2,1.648690882E-1
2.049575333E0,-1.490549743E-1,1.163722016E-2,-1.538925990E-2,1.502985016E-1
2.059533333E0,-1.290639341E-1,6.945263594E-3,-1.481428184E-2,1.300968820E-1
2.069490333E0,-1.054275930E-1,1.262394246E-3,-1.946750656E-2,1.072173252E-1
2.079448333E0,-7.498472929E-2,-2.680682112E-3,-2.125315741E-2,7.798456503E-2
2.089405333E0,-5.208402127E-2,-3.977965564E-3,-1.624597237E-2,5.470375764E-2
2.099363333E0,-2.009253204E-2,-1.228250097E-2,-9.431209415E-3,2.536764445E-2
2.109320333E0,6.704542786E-3,-1.887459122E-2,-6.265078671E-3,2.098695543E-2
2.119278333E0,3.435587883E-2,-2.584594674E-2,-1.144306269E-2,4.448913414E-2
2.129235333E0,6.250442564E-2,-2.987352386E-2,-2.272904664E-2,7.290980877E-2
2.139193333E0,8.055105805E-2,-3.249407187E-2,-2.596744895E-2,9.065674859E-2
2.149150333E0,1.000286266E-1,-3.605362773E-2,-1.693248376E-2,1.076675402E-1
2.159108333E0,1.059339195E-1,-4.135491699E-2,-1.333721727E-2,1.144993705E-1
2.169065333E0,1.045977101E-1,-5.060971156E-2,-1.837017946E-3,1.162127295E-1
2.179023333E0,9.332268685E-2,-5.226353556E-2,1.659180038E-3,1.069736131E-1
2.188980333E0,7.435318083E-2,-5.885012448E-2,3.595477436E-3,9.489288755E-2
2.198938333E0,4.918870330E-2,-5.792574584E-2,6.124948151E-3,7.623933075E-2
2.208896333E0,2.322359756E-2,-5.931764469E-2,1.056963671E-2,6.457271618E-2
2.218853333E0,-4.863165319E-3,-6.286498159E-2,1.378567051E-2,6.454224197E-2
2.228811333E0,-3.671341762E-2,-6.772264093E-2,1.625245623E-2,7.872974953E-2
2.238768333E0,-6.321453303E-2,-6.981188804E-2,1.480928902E-2,9.533672922E-2
2.248726333E0,-8.291029930E-2,-7.229763269E-2,1.117816940E-2,1.105713204E-1
2.258683333E0,-1.005026028E-1,-7.235489041E-2,5.918426439E-3,1.239799625E-1
2.268641333E0,-1.079252884E-1,-7.660280913E-2,3.654817119E-4,1.323479951E-1
2.278598333E0,-1.070416495E-1,-7.711120695E-2,9.135536849E-3,1.322403532E-1
2.288556333E0,-1.057521403E-1,-7.655900717E-2,1.929937862E-2,1.319744777E-1
2.298513333E0,-9.764973819E-2,-7.718884200E-2,2.614769712E-2,1.271899790E-1
2.308471333E0,-8.925012499E-2,-7.323825359E-2,3.140276298E-2,1.196476499E-1
2.318428333E0,-6.744576246E-2,-6.971995533E-2,3.295165673E-2,1.024481075E-1
2.328386333E0,-4.289549962E-2,-6.752703339E-2,2.952392772E-2,8.527359752E-2
2.338343333E0,-1.860507205E-2,-6.377969682E-2,3.666226566E-2,7.588227827E-2
2.348301333E0,1.258932799E-2,-6.339814514E-2,4.029610753E-2,7.616818410E-2
2.358258333E0,4.687406495E-2,-6.296085566E-2,4.051581770E-2,8.833333909E-2
2.368216333E0,8.464566618E-2,-6.540948898E-2,3.613822535E-2,1.129126272E-1
2.378174333E0,1.187639609E-1,-6.354633719E-2,2.929363772E-2,1.378445958E-1
2.388131333E0,1.495389342E-1,-6.323289871E-2,2.298225090E-2,1.639770599E-1
2.398089333E0,1.701768339E-1,-5.884987116E-2,2.270954475E-2,1.814915578E-1
2.408046333E0,1.793127060E-1,-5.769442022E-2,3.319789469E-2,1.912689020E-1
2.418004333E0,1.800235063E-1,-5.375906453E-2,3.964860365E-2,1.920169566E-1
2.427961333E0,1.734123677E-1,-4.685980082E-2,4.582929239E-2,1.853861220E-1
2.437919333E0,1.531212181E-1,-4.600546136E-2,4.393898323E-2,1.658108686E-1
2.447876333E0,1.282795221E-1,-4.393632337E-2,4.130074009E-2,1.417455023E-1
2.457834333E0,1.000321880E-1,-3.949177265E-2,4.479267821E-2,1.165007415E-1
2.467791333E0,6.930924207E-2,-3.491952270E-2,4.888235405E-2,9.172038290E-2
2.477749333E0,3.485912457E-2,-3.262840956E-2,5.336312205E-2,7.160582707E-2
2.487706333E0,2.789237536E-3,-3.065294027E-2,4.829613864E-2,5.727040773E-2
2.497664333E0,-2.094831690E-2,-2.806621417E-2,3.914045542E-2,5.252161088E-2
2.507621333E0,-4.129583016E-2,-2.339573391E-2,3.277707845E-2,5.768052380E-2
2.517579333E0,-5.732566118E-2,-2.035227232E-2,3.224231675E-2,6.884775529E-2
2.527536333E0,-6.993643939E-2,-1.328040473E-2,3.691210598E-2,8.018714531E-2
2.537494333E0,-7.739542425E-2,-4.442971665E-3,4.826888815E-2,9.132183339E-2
2.547452333E0,-7.881036401E-2,-5.377372727E-4,4.998670146E-2,9.332755734E-2
2.557409333E0,-7.205179334E-2,4.452760331E-3,4.859972745E-2,8.702425815E-2
2.567367333E0,-5.886976793E-2,8.084643632E-3,3.967721388E-2,7.145132847E-2
2.577324333E0,-3.765822202E-2,1.621767133E-2,4.107617587E-2,5.803797699E-2
2.587282333E0,-1.748370752E-2,2.069233917E-2,4.043081403E-2,4.866727496E-2
2.597239333E0,7.143874653E-3,2.576246671E-2,4.218290746E-2,4.994133877E-2
2.607197333E0,3.632058576E-2,3.367276862E-2,3.463602811E-2,6.043752758E-2
2.617154333E0,6.356072426E-2,3.542646021E-2,2.550165355E-2,7.710599254E-2
2.627112333E0,9.521868825E-2,4.568244144E-2,1.655219868E-2,1.068992953E-1
2.637069208E0,1.264674217E-1,4.760790616E-2,1.090709679E-2,1.355709638E-1
2.647027208E0,1.514054388E-1,5.212819576E-2,1.227830816E-2,1.605979842E-1
2.656984208E0,1.623757929E-1,5.511013418E-2,1.310548559E-2,1.719731920E-1
2.666942208E0,1.719028056E-1,5.646286532E-2,1.655954123E-2,1.816943811E-1
2.676899208E0,1.685328335E-1,5.677232146E-2,1.652758196E-2,1.786045167E-1
2.686857208E0,1.545285434E-1,6.085813791E-2,1.344926283E-2,1.666243269E-1
2.696814208E0,1.347796023E-1,6.218066067E-2,1.004600897E-2,1.487712944E-1
2.706772208E0,1.066939905E-1,6.525227427E-2,7.621974684E-3,1.252978907E-1
2.716729208E0,8.065173775E-2,6.686561555E-2,6.884546019E-3,1.049910011E-1
2.726687208E0,4.695013538E-2,6.665416807E-2,4.958752543E-4,8.153121626E-2
2.736645208E0,1.892649382E-2,6.757801771E-2,-6.008629687E-3,7.043510685E-2
2.746602208E0,-8.796478622E-3,6.537242979E-2,-1.064880565E-2,6.681563944E-2
2.756560208E0,-3.379610553E-2,6.460038573E-2,-1.437829621E-2,7.431098160E-2
2.766517208E0,-5.927368253E-2,5.932288244E-2,-1.599535719E-2,8.537227462E-2
2.776475208E0,-7.412027568E-2,5.454197899E-2,-2.024416439E-2,9.422562778E-2
2.786432208E0,-9.556858987E-2,5.152105168E-2,-1.674819738E-2,1.098557065E-1
2.796390208E0,-1.075727865E-1,5.420019478E-2,-8.751789108E-3,1.207731730E-1
2.806347208E0,-1.165597886E-1,5.279999971E-2,-1.041708607E-2,1.283843447E-1
2.816305208E0,-1.194250807E-1,5.336485431E-2,-8.834634908E-3,1.311038075E-1
2.826262208E0,-1.168151945E-1,4.857527837E-2,-1.564281993E-2,1.274756649E-1
2.836220208E0,-1.038495898E-1,4.354856163E-2,-1.879786700E-2,1.141690603E-1
2.846177208E0,-8.236373216E-2,3.617116809E-2,-2.110926062E-2,9.239988452E-2
2.856135208E0,-6.103421003E-2,3.295274079E-2,-2.264909819E-2,7.296601653E-2
2.866092208E0,-3.391390294E-2,2.682197653E-2,-2.854217775E-2,5.180952758E-2
2.876050208E0,-4.275315907E-3,2.265626006E-2,-3.252200782E-2,3.986559217E-2
2.886007208E0,2.430510707E-2,1.742243022E-2,-3.965153173E-2,4.966410447E-2
2.895965208E0,4.993510246E-2,1.480614115E-2,-4.083237797E-2,6.618171473E-2
2.905922208E0,6.388597935E-2,1.235398278E-2,-3.975883126E-2,7.625486156E-2
2.915880208E0,7.401371747E-2,9.433293715E-3,-3.401572257E-2,8.200052918E-2
2.925838208E0,7.614042610E-2,6.262855604E-3,-3.128721565E-2,8.255590657E-2
2.935795208E0,7.155312598E-2,1.295793802E-3,-2.935296297E-2,7.735066486E-2
2.945753208E0,6.150014699E-2,-1.777122030E-3,-2.839640342E-2,6.776268862E-2
2.955710208E0,4.625461251E-2,-7.201714441E-3,-3.269740939E-2,5.710056436E-2
2.965668208E0,2.613451891E-2,-8.147001266E-3,-2.954250015E-2,4.027587396E-2
2.975625208E0,-1.752507407E-3,-1.271698624E-2,-3.404111415E-2,3.638118296E-2
2.985583208E0,-3.173677251E-2,-1.503526792E-2,-3.879938275E-2,5.233234289E-2
2.995540208E0,-6.264834851E-2,-1.587229967E-2,-4.652175307E-2,7.963051536E-2
3.005498208E0,-8.917281032E-2,-1.635521092E-2,-4.800329357E-2,1.025845954E-1
3.015455208E0,-1.163724735E-1,-1.837148890E-2,-4.674947634E-2,1.267500601E-1
3.025413208E0,-1.407983452E-1,-2.226607688E-2,-4.285253584E-2,1.488498976E-1
3.035370208E0,-1.578921229E-1,-2.753886953E-2,-4.024529830E-2,1.652513111E-1
3.045328208E0,-1.696215868E-1,-3.501024470E-2,-4.110106826E-2,1.780070160E-1
3.055285208E0,-1.795048416E-1,-3.716767207E-2,-3.596782312E-2,1.868076773E-1
3.065243208E0,-1.827495545E-1,-4.087724537E-2,-3.649842739E-2,1.907891089E-1
3.075200208E0,-1.821167916E-1,-4.590395838E-2,-3.398253769E-2,1.908625475E-1
3.085158208E0,-1.733870208E-1,-4.989975318E-2,-3.538393974E-2,1.838615445E-1
3.095115208E0,-1.573750377E-1,-5.178287625E-2,-3.425928578E-2,1.691805764E-1
3.105073208E0,-1.352083981E-1,-5.430078134E-2,-3.386733681E-2,1.495890446E-1
3.115030208E0,-1.050680652E-1,-5.877808854E-2,-3.766100854E-2,1.261448120E-1
3.124988208E0,-7.196532190E-2,-6.082167104E-2,-3.650079295E-2,1.010474696E-1
3.134946208E0,-3.691972047E-2,-6.311891228E-2,-3.502779827E-2,8.108026578E-2
3.144903208E0,-5.617036950E-3,-6.252969801E-2,-3.278338164E-2,7.082559106E-2
3.154861208E0,1.941827498E-2,-6.072593853E-2,-2.889729664E-2,6.999830545E-2
3.164818208E0,4.288987443E-2,-5.761060491E-2,-2.559488639E-2,7.624710707E-2
3.174776208E0,5.538196489E-2,-5.935763940E-2,-2.499834076E-2,8.494356027E-2
3.184733208E0,6.594263762E-2,-5.653697997E-2,-2.305827476E-2,8.986960329E-2
3.194691208E0,7.119892538E-2,-5.459446833E-2,-2.142256312E-2,9.224298974E-2
3.204648208E0,6.923325360E-2,-5.134800076E-2,-1.512761042E-2,8.751402849E-2
3.214606208E0,6.385579705E-2,-5.099486560E-2,-1.166043989E-2,8.254698658E-2
3.224563208E0,5.276728049E-2,-5.039525032E-2,-1.127948239E-2,7.383287796E-2
3.234521208E0,3.902483359E-2,-4.917845130E-2,-1.204913482E-2,6.392682816E-2
3.244478208E0,1.792240515E-2,-5.001174286E-2,-1.014315896E-2,5.408577173E-2
3.254436208E0,-7.002387196E-3,-4.631287977E-2,-8.107438684E-3,4.753574256E-2
3.264393208E0,-3.436362743E-2,-4.497332126E-2,-6.053294986E-3,5.692188415E-2
3.274351208E0,-5.683351681E-2,-4.485215247E-2,-2.419144846E-3,7.244043398E-2
3.284308208E0,-7.836374640E-2,-4.287108034E-2,1.890546642E-3,8.934416851E-2
3.294266208E0,-9.671959281E-2,-4.237360135E-2,3.159543034E-3,1.056417741E-1
3.304223208E0,-1.104795188E-1,-4.187748581E-2,8.780235425E-3,1.184759065E-1
3.314181208E0,-1.161914691E-1,-3.746808693E-2,7.516831160E-3,1.223144218E-1
3.324139208E0,-1.118546873E-1,-3.597229719E-2,1.085994765E-2,1.179975242E-1
3.334096208E0,-1.018305421E-1,-3.179406375E-2,1.035154983E-2,1.071796453E-1
3.344054208E0,-8.587519079E-2,-2.751550823E-2,9.951251559E-3,9.072308965E-2
3.354011208E0,-6.711455435E-2,-2.276149951E-2,1.188364066E-2,7.185868201E-2
3.363969208E0,-4.217885435E-2,-2.008246072E-2,1.083519123E-2,4.795583751E-2
3.373926208E0,-1.696537808E-2,-1.143996976E-2,1.436015218E-2,2.499821858E-2
3.383884208E0,1.061228383E-2,-3.564741462E-3,1.499825902E-2,1.871565451E-2
3.393841208E0,3.812167421E-2,4.696916789E-3,1.644595340E-2,4.178268128E-2
3.403799208E0,6.679716706E-2,7.718569599E-3,1.930157095E-2,6.995704743E-2
3.413756208E0,9.509991109E-2,1.778505184E-2,2.046457306E-2,9.888933163E-2
3.423714208E0,1.154471636E-1,2.229136974E-2,2.350836061E-2,1.199066127E-1
3.433671208E0,1.324317455E-1,3.091308661E-2,2.796569467E-2,1.388375534E-1
3.443629208E0,1.463185251E-1,3.588770330E-2,2.871507220E-2,1.533675109E-1
3.453586208E0,1.533298343E-1,4.320313781E-2,2.753262781E-2,1.616619770E-1
3.463544208E0,1.526043117E-1,4.840394109E-2,3.046289273E-2,1.629693385E-1
3.473501208E0,1.454987377E-1,5.441922322E-2,3.363871574E-2,1.589430644E-1
3.483459208E0,1.288513243E-1,6.081746891E-2,4.131101444E-2,1.483510304E-1
3.493416208E0,1.072384268E-1,6.288541853E-2,4.588712379E-2,1.325152224E-1
3.503374208E0,8.515974879E-2,6.635783613E-2,4.653210193E-2,1.175618209E-1
3.513331208E0,6.083710492E-2,6.647261977E-2,4.418798909E-2,1.003610527E-1
3.523289208E0,4.031097516E-2,6.631305814E-2,4.033529758E-2,8.746046324E-2
3.533247208E0,2.102223039E-2,6.611917913E-2,4.152093455E-2,8.085584719E-2
3.543204208E0,-4.852700513E-3,7.238797843E-2,4.611600190E-2,8.596658511E-2
3.553162208E0,-1.943750307E-2,7.158903033E-2,4.679617286E-2,8.770796761E-2
3.563119208E0,-3.331256658E-2,7.260882854E-2,4.482041299E-2,9.160042847E-2
3.573077208E0,-3.756882995E-2,7.092544436E-2,3.735423833E-2,8.852781915E-2
3.583034208E0,-3.489856794E-2,7.117397338E-2,3.450475633E-2,8.645358721E-2
3.592992208E0,-2.600361034E-2,7.240328938E-2,3.797938675E-2,8.579544208E-2
3.602949208E0,-1.115709729E-2,7.008074224E-2,4.089344293E-2,8.190277729E-2
3.612907208E0,6.238138303E-3,6.781971455E-2,4.316671565E-2,8.063369885E-2
3.622864208E0,2.364188433E-2,6.602432579E-2,3.738145530E-2,7.947026797E-2
3.632822125E0,4.460735247E-2,6.308339536E-2,2.927133068E-2,8.262046638E-2
3.642779125E0,6.117727235E-2,6.230756640E-2,2.559365518E-2,9.099410239E-2
3.652737125E0,8.239760995E-2,6.422664225E-2,2.341998369E-2,1.070650425E-1
3.662694125E0,1.018891931E-1,6.557135284E-2,2.350816131E-2,1.234246476E-1
3.672652125E0,1.250704229E-1,6.012625247E-2,2.140293270E-2,1.404131847E-1
3.682609125E0,1.456235498E-1,5.181521550E-2,1.976248808E-2,1.558255138E-1
3.692567125E0,1.614677608E-1,4.698610678E-2,1.588572562E-2,1.689138487E-1
3.702524125E0,1.698573232E-1,3.916238248E-2,1.274446212E-2,1.747787852E-1
3.712482125E0,1.714387089E-1,3.289649636E-2,1.577487215E-2,1.752776568E-1
3.722440125E0,1.649141610E-1,2.928971685E-2,1.952664554E-2,1.686293506E-1
3.732397125E0,1.492835283E-1,2.249838971E-2,2.340527438E-2,1.527728910E-1
3.742355125E0,1.285342127E-1,1.589452848E-2,2.670739032E-2,1.322382871E-1
3.752312125E0,1.005907208E-1,1.067952719E-2,2.193580382E-2,1.035071249E-1
3.762270125E0,7.331888378E-2,6.214954890E-3,1.799980365E-2,7.575141790E-2
3.772227125E0,4.506594315E-2,4.393086303E-3,1.620030589E-2,4.809041849E-2
3.782185125E0,1.558156777E-2,-1.142385183E-3,1.550069638E-2,2.200822315E-2
3.792142125E0,-8.701135404E-3,-8.359551430E-3,1.423116680E-2,1.865791966E-2
3.802100125E0,-2.964753471E-2,-2.115027606E-2,1.185857877E-2,3.830060551E-2
3.812057125E0,-4.602411017E-2,-2.829021215E-2,1.099784579E-2,5.513172800E-2
3.822015125E0,-6.224612892E-2,-3.743899986E-2,6.192260887E-3,7.290132626E-2
3.831972125E0,-7.463355362E-2,-4.611371458E-2,4.407410044E-3,8.784114789E-2
3.841930125E0,-8.389042318E-2,-5.106754974E-2,5.685199518E-3,9.837590778E-2
3.851887125E0,-8.996828645E-2,-5.470622703E-2,8.285243995E-3,1.056205904E-1
3.861845125E0,-9.114639461E-2,-6.222402677E-2,1.034642477E-2,1.108446808E-1
3.871802125E0,-8.635696024E-2,-6.489917636E-2,8.591135964E-3,1.083662092E-1
3.881760125E0,-7.630574703E-2,-7.293353975E-2,4.333414137E-3,1.056439621E-1
3.891717125E0,-5.885405466E-2,-7.791018486E-2,-8.287305944E-3,9.799222466E-2
3.901675125E0,-4.304011166E-2,-8.160031587E-2,-1.227522455E-2,9.306849037E-2
3.911632125E0,-2.058620192E-2,-8.577802032E-2,-1.547714323E-2,8.956116593E-2
3.921590125E0,-5.692572333E-3,-8.694289625E-2,-1.771413721E-2,8.891154731E-2
3.931548125E0,1.436422579E-2,-8.618123829E-2,-1.741719432E-2,8.908925566E-2
3.941505125E0,2.975036949E-2,-7.946346700E-2,-2.676314116E-2,8.897074124E-2
3.951463125E0,4.516980425E-2,-7.739578933E-2,-3.453850746E-2,9.603815866E-2
3.961420125E0,5.681882426E-2,-7.109700143E-2,-3.191277012E-2,9.644473703E-2
3.971378125E0,5.940261856E-2,-6.786739081E-2,-2.604875341E-2,9.387859917E-2
3.981335125E0,5.628461018E-2,-6.350738555E-2,-1.671402901E-2,8.648990767E-2
3.991293125E0,4.695661739E-2,-5.959919468E-2,-1.803335920E-2,7.798839636E-2
4.001250125E0,3.267301619E-2,-5.558876321E-2,-2.255186997E-2,6.830976080E-2
4.011208125E0,1.559496578E-2,-5.361216515E-2,-3.149662912E-2,6.410541986E-2
4.021165125E0,-4.286774434E-3,-5.175016448E-2,-3.747278824E-2,6.403644132E-2
4.031123125E0,-2.610125765E-2,-4.571517557E-2,-3.761819378E-2,6.470147936E-2
4.041080125E0,-4.956122860E-2,-4.134137928E-2,-3.513745219E-2,7.348513842E-2
4.051038125E0,-7.195814699E-2,-4.506288096E-2,-3.444023430E-2,9.162296599E-2
4.060995125E0,-9.205284715E-2,-4.136943072E-2,-4.052157328E-2,1.087527212E-1
4.070953125E0,-1.068650782E-1,-4.008471966E-2,-4.675097391E-2,1.233393013E-1
4.080910125E0,-1.178261265E-1,-3.433500230E-2,-4.370017350E-2,1.302750691E-1
4.090868125E0,-1.303171515E-1,-2.969551086E-2,-4.064206034E-2,1.397002520E-1
4.100825125E0,-1.426591277E-1,-2.753292024E-2,-2.981796116E-2,1.483199219E-1
4.110783125E0,-1.567861289E-1,-2.189767174E-2,-2.406153828E-2,1.601260624E-1
4.120741125E0,-1.598954499E-1,-1.384523138E-2,-2.245916612E-2,1.620575807E-1
4.130698125E0,-1.546493024E-1,-6.668012589E-3,-2.930348925E-2,1.575422597E-1
4.140656125E0,-1.451850384E-1,-2.225995529E-3,-3.686805815E-2,1.498095596E-1
4.150613125E0,-1.279818118E-1,4.799689632E-3,-4.135468602E-2,1.345830272E-1
4.160571125E0,-1.063475385E-1,1.243915316E-2,-3.940927237E-2,1.140947949E-1
4.170528125E0,-8.131036162E-2,1.203675009E-2,-4.087401181E-2,9.179838289E-2
4.180486125E0,-5.098725110E-2,1.293497905E-2,-3.963840753E-2,6.586514108E-2
4.190443125E0,-2.112922072E-2,1.655900851E-2,-4.789047688E-2,5.490120679E-2
4.200401125E0,7.150529884E-3,1.886751503E-2,-5.173844844E-2,5.553359567E-2
4.210358125E0,2.755380422E-2,2.426920459E-2,-5.403596163E-2,6.533063269E-2
4.220316125E0,3.820484877E-2,2.859756723E-2,-4.121048003E-2,6.305342961E-2
4.230273125E0,3.845705092E-2,3.581313789E-2,-2.488530613E-2,5.814468224E-2
4.240231125E0,3.212423623E-2,4.365366325E-2,-2.123412304E-2,5.821079667E-2
4.250188125E0,2.845546231E-2,4.670457914E-2,-2.761292458E-2,6.126585225E-2
4.260146125E0,2.331228182E-2,4.665493593E-2,-3.970947117E-2,6.555141211E-2
4.270103125E0,1.674706116E-2,4.261385649E-2,-4.849896953E-2,6.669748772E-2
4.280061125E0,-1.006914768E-3,4.216549173E-2,-4.004004598E-2,5.815623657E-2
4.290018125E0,-2.401795797E-2,4.247441888E-2,-2.821881138E-2,5.636701056E-2
4.299976125E0,-4.775684699E-2,3.911133111E-2,-2.236156911E-2,6.565403589E-2
4.309933125E0,-6.417071074E-2,3.562152386E-2,-2.536747977E-2,7.765489108E-2
4.319891125E0,-7.860361040E-2,3.033015877E-2,-3.459075093E-2,9.107670475E-2
4.329849125E0,-9.043443203E-2,3.174882382E-2,-3.724911809E-2,1.028293300E-1
4.339806125E0,-1.006256416E-1,3.283733875E-2,-2.038222924E-2,1.077926057E-1
4.349764125E0,-1.223069653E-1,3.374361247E-2,3.517244942E-3,1.269251597E-1
4.359721125E0,-1.296749711E-1,3.342747688E-2,1.837668195E-2,1.351691414E-1
4.369679125E0,-1.352500319E-1,2.407205664E-2,1.808000356E-2,1.385601731E-1
4.379636125E0,-1.235351339E-1,1.973680407E-2,8.961725980E-4,1.251050513E-1
4.389594125E0,-1.111817956E-1,1.276837476E-2,-1.245318819E-2,1.126033080E-1
4.399551125E0,-9.576475620E-2,5.452481098E-3,-4.626916721E-3,9.603138257E-2
4.409509125E0,-8.257571608E-2,1.012192457E-3,1.171983220E-2,8.340939927E-2
4.419466125E0,-6.111631542E-2,-3.003723454E-3,1.767453551E-2,6.369156593E-2
4.429424125E0,-3.411931917E-2,-1.012288593E-2,1.286033820E-2,3.784163129E-2
4.439381125E0,2.835230902E-3,-1.889703795E-2,-2.879276872E-5,1.910856893E-2
4.449339125E0,3.743794933E-2,-1.807465404E-2,-8.553304709E-3,4.244351765E-2
4.459296125E0,6.416178495E-2,-1.683537290E-2,3.655571491E-4,6.633474248E-2
4.469254125E0,7.981345057E-2,-1.421588659E-2,2.802940831E-2,8.577835423E-2
4.479211125E0,9.280336648E-2,-1.301495731E-2,4.707999900E-2,1.048731627E-1
4.489169125E0,9.949269891E-2,-2.090909891E-2,4.214995354E-2,1.100572857E-1
4.499126125E0,1.076463237E-1,-2.955670469E-2,2.541641518E-2,1.144872219E-1
4.509084125E0,1.113585010E-1,-3.618025407E-2,1.217624359E-2,1.177199535E-1
4.519041125E0,1.050339490E-1,-3.818431869E-2,1.824409515E-2,1.132387727E-1
4.528999125E0,9.054449201E-2,-4.283286631E-2,3.153087199E-2,1.050102631E-1
4.538956125E0,7.396862656E-2,-5.318254977E-2,4.597219080E-2,1.020450079E-1
4.548914125E0,6.672349572E-2,-6.153901666E-2,3.843491524E-2,9.857138613E-2
4.558872125E0,5.516545102E-2,-6.928829849E-2,2.530531213E-2,9.211109659E-2
4.568829125E0,4.336551577E-2,-7.236318290E-2,1.863835379E-2,8.639668066E-2
4.578787125E0,2.426417544E-2,-7.573168725E-2,2.854758501E-2,8.449262260E-2
4.588744125E0,-1.857706811E-3,-7.221765071E-2,5.166754872E-2,8.881652852E-2
4.598702125E0,-2.448916063E-2,-7.050079107E-2,6.612849236E-2,9.971488370E-2
4.608659125E0,-3.897329420E-2,-6.960197538E-2,6.488586217E-2,1.028276604E-1
4.618617125E0,-4.874532670E-2,-6.721252948E-2,5.295260251E-2,9.847643935E-2
4.628574125E0,-5.056852102E-2,-6.353949755E-2,4.250768572E-2,9.165885889E-2
4.638531500E0,-5.166360736E-2,-5.499091372E-2,4.233773798E-2,8.651943697E-2
4.648488500E0,-4.517135397E-2,-5.106541514E-2,5.239702761E-2,8.598590783E-2
4.658446500E0,-3.044345602E-2,-5.619668216E-2,5.780424923E-2,8.617541603E-2
4.668403500E0,-9.050549008E-3,-5.714663118E-2,4.973486811E-2,7.629683479E-2
4.678361500E0,2.046819776E-2,-6.081058085E-2,3.748238832E-2,7.430883727E-2
4.688318500E0,5.082822964E-2,-6.031523645E-2,2.866332978E-2,8.392272130E-2
4.698276500E0,7.671593130E-2,-5.413097888E-2,3.168589249E-2,9.909335383E-2
4.708233500E0,9.202005714E-2,-4.596359655E-2,4.363309965E-2,1.117326743E-1
4.718191500E0,1.050158367E-1,-3.953696042E-2,5.686400086E-2,1.257975031E-1
4.728148500E0,1.198267490E-1,-3.538908809E-2,5.450923368E-2,1.363161541E-1
4.738106500E0,1.330764294E-1,-2.960483730E-2,4.160103202E-2,1.425357089E-1
4.748063500E0,1.411892027E-1,-3.005331382E-2,2.946394123E-2,1.473286003E-1
4.758021500E0,1.438265145E-1,-2.572561055E-2,2.739367075E-2,1.486549243E-1
4.767979500E0,1.424294114E-1,-2.599858493E-2,3.191944957E-2,1.482596200E-1
4.777936500E0,1.373211294E-1,-2.194025554E-2,3.330367059E-2,1.429951114E-1
4.787894500E0,1.303902566E-1,-2.567374147E-2,2.546838671E-2,1.353122269E-1
4.797851500E0,1.205789074E-1,-2.343767695E-2,9.543254972E-3,1.232058088E-1
4.807809500E0,1.049469560E-1,-2.100940607E-2,3.152200952E-3,1.070756513E-1
4.817766500E0,8.574511856E-2,-1.256510988E-2,3.794987220E-3,8.674392930E-2
4.827724500E0,6.282808632E-2,-6.649430376E-3,1.741732284E-2,6.553584126E-2
4.837681500E0,4.016440362E-2,-1.137219463E-2,2.702016011E-2,4.972519664E-2
4.847639500E0,1.356821228E-2,-1.171787269E-2,2.764147520E-2,3.294626043E-2
4.857596500E0,-8.658980951E-3,-1.121016406E-2,2.330338955E-2,2.727074795E-2
4.867554500E0,-2.378174104E-2,-1.185198594E-2,1.443666033E-2,3.024000561E-2
4.877511500E0,-3.735586628E-2,-8.657740429E-3,1.331238821E-2,4.059109379E-2
4.887469500E0,-5.186636746E-2,-6.630542222E-3,1.703095995E-2,5.499216090E-2
4.897426500E0,-6.058377400E-2,-5.368022714E-3,1.571641117E-2,6.281890575E-2
4.907384500E0,-5.912888795E-2,-2.882760949E-3,1.437843964E-2,6.092023660E-2
4.917341500E0,-5.385538936E-2,2.691264963E-3,3.209585324E-3,5.401802762E-2
4.927299500E0,-3.934835270E-2,1.320276130E-2,-5.401745439E-3,4.185432618E-2
4.937256500E0,-2.909981087E-2,2.099459432E-2,-5.232498981E-3,3.626225350E-2
4.947214500E0,-1.164572034E-2,3.080674447E-2,1.044837758E-3,3.295102416E-2
4.957171500E0,-1.971688587E-3,3.956536576E-2,1.030671876E-2,4.093328933E-2
4.967129500E0,5.187953822E-3,4.475986212E-2,1.412835531E-2,4.722256395E-2
4.977087500E0,1.462850720E-2,5.052997544E-2,4.618955310E-3,5.280725698E-2
4.987044500E0,2.661486343E-2,6.152057275E-2,-5.270427093E-3,6.723770690E-2
4.997002500E0,3.784815967E-2,7.009392977E-2,-1.136087440E-2,8.046559294E-2
5.006959500E0,4.533084482E-2,7.349425554E-2,-1.247274317E-2,8.724597648E-2
5.016917500E0,5.019635707E-2,7.764475793E-2,-1.631851122E-2,9.388650864E-2
5.026874500E0,5.262942612E-2,7.848658413E-2,-2.055133879E-2,9.670758971E-2
5.036832500E0,5.421061814E-2,8.153433353E-2,-2.841069736E-2,1.019500191E-1
5.046789500E0,4.916552454E-2,8.221317828E-2,-4.088574648E-2,1.041532513E-1
5.056747500E0,4.169375822E-2,8.313564956E-2,-4.544093087E-2,1.035122403E-1
5.066704500E0,2.853054926E-2,8.263710141E-2,-4.599353671E-2,9.878404826E-2
5.076662500E0,9.344075806E-3,8.283074200E-2,-3.888110816E-2,9.197817211E-2
5.086619500E0,-1.547418907E-2,8.438895643E-2,-3.414787352E-2,9.234188519E-2
5.096577500E0,-4.333342239E-2,8.978608996E-2,-3.002520464E-2,1.041193563E-1
5.106534500E0,-7.033760846E-2,8.734343946E-2,-3.702266514E-2,1.180971351E-1
5.116492500E0,-8.981197327E-2,8.796928078E-2,-4.234525561E-2,1.326570977E-1
5.126449500E0,-1.157945767E-1,8.950618654E-2,-4.240278155E-2,1.523736766E-1
5.136407500E0,-1.286586970E-1,8.452428877E-2,-4.192789644E-2,1.595473729E-1
5.146364500E0,-1.370854825E-1,8.145286888E-2,-4.288823158E-2,1.651254062E-1
5.156322500E0,-1.397987902E-1,7.378735393E-2,-4.605139792E-2,1.646481296E-1
5.166279500E0,-1.320961267E-1,6.262525171E-2,-5.449947715E-2,1.560176331E-1
5.176237500E0,-1.190232038E-1,5.098696798E-2,-5.563664436E-2,1.409312959E-1
5.186195500E0,-1.078073010E-1,4.256764799E-2,-5.621801317E-2,1.288211311E-1
5.196152500E0,-9.804736078E-2,3.633277491E-2,-3.917146474E-2,1.116591203E-1
5.206110500E0,-8.040391654E-2,3.009804711E-2,-3.208985180E-2,9.165391875E-2
5.216067500E0,-6.684442610E-2,2.572973818E-2,-3.282804042E-2,7.879008164E-2
5.226025500E0,-4.374523461E-2,1.923695207E-2,-3.858765960E-2,6.142241732E-2
5.235982500E0,-1.894659176E-2,1.361912489E-2,-4.044474661E-2,4.669294841E-2
5.245940500E0,1.210873947E-3,6.036039907E-3,-3.569313884E-2,3.622016225E-2
5.255897500E0,2.029109932E-2,-4.452201538E-4,-2.814063802E-2,3.469614447E-2
5.265855500E0,3.103215992E-2,-8.810475469E-3,-2.540690452E-2,4.106251606E-2
5.275812500E0,4.213753715E-2,-7.821161300E-3,-3.060471080E-2,5.266299388E-2
5.285770500E0,4.621883109E-2,-1.107074972E-2,-4.396605492E-2,6.474377060E-2
5.295727500E0,4.477256536E-2,-1.463563740E-2,-4.894649610E-2,6.793043480E-2
5.305685500E0,3.932294250E-2,-1.342070289E-2,-4.214052111E-2,5.917966367E-2
5.315642500E0,2.800485678E-2,-1.839804091E-2,-3.204294294E-2,4.636280950E-2
5.325600500E0,1.390661299E-2,-2.342795394E-2,-2.190508880E-2,3.495848718E-2
5.335557500E0,-6.313128397E-4,-3.100004233E-2,-1.967252232E-2,3.672069328E-2
5.345515500E0,-2.129504457E-2,-3.164666146E-2,-2.943780087E-2,4.818271708E-2
5.355472500E0,-4.320141673E-2,-3.318071365E-2,-3.006315045E-2,6.221828655E-2
5.365430500E0,-6.729716063E-2,-3.118574060E-2,-2.684685029E-2,7.888099654E-2
5.375387500E0,-8.921294659E-2,-3.014843352E-2,-1.902755722E-2,9.607250292E-2
5.385345500E0,-1.096625626E-1,-3.073885851E-2,-1.676653326E-2,1.151167742E-1
5.395303500E0,-1.210831702E-1,-3.599333018E-2,-2.130306140E-2,1.281033737E-1
5.405260500E0,-1.256725937E-1,-4.176519811E-2,-3.229206428E-2,1.363110781E-1
5.415218500E0,-1.245706603E-1,-4.898327589E-2,-3.307230771E-2,1.378803404E-1
5.425175500E0,-1.259538978E-1,-5.428642780E-2,-2.404605225E-2,1.392465915E-1
5.435133500E0,-1.149282455E-1,-5.944627523E-2,-1.381214894E-2,1.301273865E-1
5.445090500E0,-9.993758053E-2,-6.761019677E-2,-7.859716192E-3,1.209149860E-1
5.455048500E0,-8.388484269E-2,-7.827428728E-2,-5.372057669E-3,1.148581294E-1
5.465005500E0,-6.686324626E-2,-8.060269058E-2,-9.135903791E-3,1.051235091E-1
5.474963500E0,-4.554534703E-2,-7.851264626E-2,-3.166681156E-3,9.082203548E-2
5.484920500E0,-2.432927489E-2,-7.181559503E-2,5.011886358E-3,7.599021194E-2
5.494878500E0,-1.960237045E-3,-6.875657290E-2,9.900053963E-3,6.949330842E-2
5.504835500E0,2.586686611E-2,-6.354503334E-2,1.185827702E-2,6.962531693E-2
5.514793500E0,5.026666448E-2,-5.861616880E-2,9.084658697E-3,7.775039438E-2
5.524750500E0,7.312404364E-2,-5.169834197E-2,9.033525363E-3,9.000804909E-2
5.534708500E0,9.476993233E-2,-4.523131996E-2,1.276761666E-2,1.057838571E-1
5.544665500E0,1.103081405E-1,-3.607324511E-2,1.673625968E-2,1.172572696E-1
5.554623500E0,1.210974231E-1,-3.462082148E-2,2.231311239E-2,1.279103677E-1
5.564580500E0,1.183599606E-1,-3.352546319E-2,2.236664295E-2,1.250332103E-1
5.574538500E0,1.171634868E-1,-2.336943895E-2,2.384052239E-2,1.218268600E-1
5.584495500E0,1.033254340E-1,-1.416741870E-2,2.618996426E-2,1.075303459E-1
5.594453500E0,9.081329405E-2,-9.591877460E-5,3.283434734E-2,9.656685737E-2
5.604410500E0,7.637655735E-2,7.420054171E-3,3.022578359E-2,8.247444277E-2
5.614368500E0,6.023912877E-2,1.223659795E-2,3.043286130E-2,6.859042215E-2
5.624325500E0,4.047341645E-2,2.215234376E-2,2.725144848E-2,5.358605432E-2
5.634283500E0,1.888280734E-2,2.886010334E-2,2.640999109E-2,4.343907926E-2
5.644241500E0,3.169892356E-3,3.763708472E-2,2.839271352E-2,4.725192636E-2
5.654198500E0,-1.475557871E-2,4.301240668E-2,2.477321215E-2,5.178326246E-2
5.664156500E0,-2.560050413E-2,4.696853459E-2,2.401660755E-2,5.863639221E-2
5.674113500E0,-3.427282348E-2,5.003966764E-2,2.098067850E-2,6.417775033E-2
5.684071500E0,-4.681178182E-2,4.859889671E-2,2.347233333E-2,7.144330697E-2
5.694028500E0,-5.225145817E-2,5.138327554E-2,2.900384739E-2,7.881420588E-2
5.703986500E0,-5.061307549E-2,5.365921184E-2,2.784164436E-2,7.884257471E-2
5.713943500E0,-3.893050551E-2,5.479090288E-2,2.717472613E-2,7.249891750E-2
5.723901500E0,-2.313210256E-2,5.890575051E-2,2.735795081E-2,6.894518899E-2
5.733858500E0,-3.547126893E-3,5.589284003E-2,2.531235106E-2,6.145979818E-2
5.743816500E0,1.725722104E-2,5.770138651E-2,2.824502438E-2,6.652099733E-2
5.753773500E0,3.841497004E-2,6.043967977E-2,3.036935255E-2,7.778793215E-2
5.763731500E0,6.322817504E-2,6.188843772E-2,3.269935027E-2,9.432512046E-2
5.773688500E0,8.543334156E-2,6.314028800E-2,3.109616414E-2,1.106911164E-1
5.783646500E0,1.047359332E-1,6.011413783E-2,3.113557771E-2,1.247106631E-1
5.793603500E0,1.231384650E-1,5.661948025E-2,3.777021170E-2,1.406962544E-1
5.803561500E0,1.331463456E-1,5.438828468E-2,4.142193869E-2,1.496723484E-1
5.813518500E0,1.358216852E-1,5.386023968E-2,4.604715109E-2,1.531952862E-1
5.823476500E0,1.421237886E-1,4.932088032E-2,4.540106654E-2,1.571399929E-1
5.833433500E0,1.444627494E-1,4.803843051E-2,3.897579759E-2,1.571505315E-1
5.843391500E0,1.446534395E-1,3.985773399E-2,3.611236811E-2,1.543287389E-1
5.853348500E0,1.334273964E-1,3.868054226E-2,3.871876374E-2,1.442158006E-1
5.863306500E0,1.200660467E-1,4.136793688E-2,4.309353977E-2,1.341052383E-1
5.873263500E0,1.016133949E-1,3.707511723E-2,4.112753645E-2,1.157208736E-1
5.883221500E0,8.200986683E-2,3.032320552E-2,3.545180708E-2,9.435012282E-2
5.893179500E0,6.163232401E-2,2.292758599E-2,3.164407983E-2,7.297647121E-2
5.903136500E0,4.256382585E-2,1.502465550E-2,2.937560156E-2,5.385485596E-2
5.913094500E0,1.641513035E-2,5.482127424E-3,3.286667168E-2,3.714469454E-2
5.923051500E0,-9.504351765E-3,-5.840834230E-3,3.821243718E-2,3.980751691E-2
5.933009500E0,-3.108083084E-2,-2.115542814E-2,3.488080949E-2,5.128587580E-2
5.942966500E0,-4.537401721E-2,-2.838644199E-2,2.290484309E-2,5.821703671E-2
5.952924500E0,-5.591056868E-2,-3.947311640E-2,8.802410215E-3,6.900435518E-2
5.962881500E0,-6.212132424E-2,-4.008111730E-2,4.700875841E-3,7.407869548E-2
5.972839500E0,-6.503187120E-2,-4.261331633E-2,1.236804575E-2,7.872742569E-2
5.982796500E0,-6.383771449E-2,-4.490496591E-2,1.569246873E-2,7.961132664E-2
5.992754500E0,-5.392614752E-2,-4.969593138E-2,1.171219442E-2,7.426230861E-2
6.002711500E0,-3.400916606E-2,-4.992682859E-2,1.974079758E-3,6.044177844E-2
6.012669500E0,-1.112373825E-2,-5.145294964E-2,-5.578517914E-3,5.293640942E-2
6.022626500E0,5.604109727E-3,-4.855383188E-2,2.873605117E-4,4.887702131E-2
6.032584500E0,1.842208579E-2,-4.385745525E-2,9.833260439E-3,4.857512364E-2
6.042541500E0,3.642958403E-2,-4.586095363E-2,1.527569629E-2,6.052841116E-2
6.052499500E0,5.057132244E-2,-4.635958001E-2,7.894186303E-3,6.905785610E-2
6.062456500E0,6.752501428E-2,-4.763576388E-2,-3.025040030E-3,8.269186430E-2
6.072414500E0,7.931660116E-2,-4.720233753E-2,-1.714231819E-2,9.387780867E-2
6.082371500E0,8.465410769E-2,-4.236896709E-2,-1.530686673E-2,9.589446016E-2
6.092329500E0,8.748424053E-2,-3.971498460E-2,-8.114888333E-3,9.641900101E-2
6.102286500E0,8.611510694E-2,-3.950992227E-2,-5.505522713E-3,9.490603975E-2
6.112244500E0,8.029886335E-2,-4.147095606E-2,-1.210360136E-2,9.118248087E-2
6.122202500E0,7.003371418E-2,-4.109438509E-2,-1.603229716E-2,8.276777247E-2
6.132159500E0,4.972603545E-2,-3.644676134E-2,-1.909908094E-2,6.454316312E-2
6.142117500E0,2.290986851E-2,-2.800986543E-2,-1.287261024E-2,3.840727446E-2
6.152074500E0,-9.240697138E-3,-2.003758959E-2,-2.188323997E-3,2.217395414E-2
6.162032500E0,-4.410573840E-2,-1.564656943E-2,-4.205182195E-4,4.680072788E-2
6.171989500E0,-7.067663223E-2,-1.510943472E-2,-9.566269815E-3,7.290401140E-2
6.181947500E0,-9.549702704E-2,-1.712464727E-2,-1.979893446E-2,9.901986429E-2
6.191904500E0,-1.140243635E-1,-1.342440210E-2,-2.977741510E-2,1.186105581E-1
6.201862500E0,-1.292709708E-1,-9.582258761E-3,-3.373168036E-2,1.339426364E-1
6.211819500E0,-1.413951814E-1,-9.862653911E-3,-3.452567011E-2,1.458831422E-1
6.221777500E0,-1.421006620E-1,-1.416951697E-2,-3.722239286E-2,1.475766915E-1
6.231734500E0,-1.417998970E-1,-1.626998372E-2,-4.339497536E-2,1.491812556E-1
6.241692500E0,-1.318695098E-1,-1.352719404E-2,-5.038310587E-2,1.418132926E-1
6.251649500E0,-1.248484254E-1,-1.276406832E-2,-5.169218034E-2,1.357281558E-1
6.261607500E0,-1.082907543E-1,-5.770341028E-3,-4.851902276E-2,1.188035347E-1
6.271564500E0,-9.806174040E-2,-4.242349416E-3,-4.182104766E-2,1.066916233E-1
6.281522500E0,-8.068035543E-2,-1.137103653E-3,-4.023513198E-2,9.016362128E-2
6.291479500E0,-6.227798760E-2,-3.570253495E-3,-4.321149364E-2,7.588496315E-2
6.301437500E0,-4.475066066E-2,-1.950252801E-3,-4.419846088E-2,6.292796723E-2
6.311394500E0,-2.799015120E-2,2.355842851E-3,-4.878211766E-2,5.629114996E-2
6.321352500E0,-7.998067886E-3,4.074114375E-3,-5.346821249E-2,5.421639276E-2
6.331309500E0,1.313694380E-2,7.182537578E-3,-5.312407762E-2,5.519362066E-2
6.341267500E0,2.690441906E-2,9.752487764E-3,-5.698858947E-2,6.377035449E-2
6.351225500E0,3.582583740E-2,1.419833675E-2,-5.264381692E-2,6.524151172E-2
6.361182500E0,3.899206966E-2,1.962372847E-2,-4.691855237E-2,6.408449713E-2
6.371140500E0,3.359028697E-2,2.569310553E-2,-3.881251439E-2,5.740082163E-2
6.381097500E0,3.099130839E-2,2.891526371E-2,-3.426809609E-2,5.450556009E-2
6.391055500E0,1.896989718E-2,3.128973022E-2,-2.983311750E-2,4.721142993E-2
6.401012500E0,-5.350355990E-3,3.384716436E-2,-2.275443636E-2,4.113418552E-2
6.410970500E0,-2.693535388E-2,3.831138462E-2,-2.113273367E-2,5.137964492E-2
6.420927500E0,-5.065453053E-2,4.162329063E-2,-1.323433034E-2,6.688443231E-2
6.430885500E0,-7.516901940E-2,4.709641263E-2,-1.493199356E-2,8.995230954E-2
6.440842500E0,-9.189394116E-2,5.398920551E-2,-2.225488983E-2,1.088788816E-1
6.450800500E0,-1.041921526E-1,5.282617360E-2,-2.500665560E-2,1.194652339E-1
6.460757500E0,-1.136114895E-1,5.459531397E-2,-2.778460085E-2,1.290744084E-1
6.470715500E0,-1.173480004E-1,5.444610864E-2,-2.325674891E-2,1.314374692E-1
6.480672500E0,-1.203597710E-1,5.680061132E-2,-1.835706457E-2,1.343494166E-1
6.490630500E0,-1.140041351E-1,5.909657106E-2,-1.713535562E-2,1.295490947E-1
6.500587500E0,-1.077726036E-1,6.102576479E-2,-2.141984925E-2,1.256896495E-1
6.510545500E0,-9.843883663E-2,6.093965471E-2,-2.132132463E-2,1.177218967E-1
6.520502500E0,-8.601971716E-2,6.217803061E-2,-2.123823389E-2,1.082430682E-1
6.530460500E0,-7.572420686E-2,7.203840464E-2,-1.357426401E-2,1.053942498E-1
6.540417500E0,-5.807117373E-2,7.564965636E-2,-7.915313356E-3,9.569631085E-2
6.550375500E0,-3.201651201E-2,7.552809268E-2,-1.009181887E-2,8.265225123E-2
6.560332500E0,-4.619508982E-3,6.918843836E-2,-2.011089586E-2,7.219991688E-2
6.570290500E0,2.624690905E-2,6.529240310E-2,-2.653921582E-2,7.520856410E-2
6.580247500E0,5.205427110E-2,6.350835413E-2,-2.503053658E-2,8.584571012E-2
6.590205500E0,7.314287126E-2,6.077408046E-2,-1.949141175E-2,9.707359890E-2
6.600163500E0,8.776548505E-2,6.319542229E-2,-8.737302385E-3,1.085024526E-1
6.610120500E0,1.046725512E-1,5.970326066E-2,-9.086560458E-3,1.208444781E-1
6.620078500E0,1.079511642E-1,5.895597860E-2,-7.181601599E-3,1.232105380E-1
6.630035500E0,1.034339219E-1,5.521801859E-2,-3.333750181E-3,1.172975689E-1
6.639994083E0,9.505534917E-2,5.901062489E-2,4.366513807E-3,1.119680298E-1
6.649951083E0,7.710191607E-2,5.739217252E-2,1.634662785E-2,9.749758546E-2
6.659909083E0,6.244840100E-2,5.208076164E-2,2.863951214E-2,8.621154317E-2
6.669866083E0,4.398896918E-2,4.849537462E-2,2.789375372E-2,7.116805650E-2
6.679824083E0,2.682489529E-2,3.742727637E-2,2.379461564E-2,5.183203409E-2
6.689781083E0,8.414983749E-3,2.963450365E-2,1.815913618E-2,3.575989352E-2
6.699739083E0,-8.539232425E-3,2.358832769E-2,1.911174878E-2,3.153706764E-2
6.709696083E0,-2.475238219E-2,2.024827152E-2,2.586901188E-2,4.113245312E-2
6.719654083E0,-3.805860132E-2,1.568174921E-2,3.474825621E-2,5.386850380E-2
6.729611083E0,-4.115007445E-2,4.377101548E-3,3.111615218E-2,5.177550166E-2
6.739569083E0,-4.353280365E-2,-7.354922127E-3,2.839786373E-2,5.249417623E-2
6.749526083E0,-3.890379146E-2,-8.200469427E-3,3.416412696E-2,5.242079988E-2
6.759484083E0,-3.263391182E-2,-8.085687645E-3,4.138448834E-2,5.332003770E-2
6.769441083E0,-2.079065144E-2,-1.041872799E-2,4.843793437E-2,5.373113219E-2
6.779399083E0,-7.656207308E-3,-1.283048652E-2,4.815350845E-2,5.041824344E-2
6.789356083E0,9.806224145E-3,-1.560749486E-2,4.404304549E-2,4.774458905E-2
6.799314083E0,3.299569711E-2,-1.501920260E-2,3.673320264E-2,5.161027660E-2
6.809271083E0,5.146436766E-2,-1.536555029E-2,3.647874296E-2,6.492595754E-2
6.819229083E0,7.427247614E-2,-1.479536667E-2,3.070927039E-2,8.172125106E-2
6.829186083E0,9.556728601E-2,-1.482569706E-2,3.225434572E-2,1.019472916E-1
6.839144083E0,1.144722700E-1,-1.842176169E-2,3.293984383E-2,1.205333780E-1
6.849102083E0,1.285986602E-1,-1.952011138E-2,3.327664733E-2,1.342608857E-1
6.859059083E0,1.374022812E-1,-2.333429083E-2,3.067713603E-2,1.427058607E-1
6.869017083E0,1.386559159E-1,-2.600293420E-2,3.061715141E-2,1.443572844E-1
6.878974083E0,1.356670409E-1,-2.650360763E-2,3.598315269E-2,1.428382809E-1
6.888932083E0,1.330130100E-1,-2.923187986E-2,3.800648451E-2,1.413911472E-1
6.898889083E0,1.184561849E-1,-2.849232033E-2,4.275010526E-2,1.291172008E-1
6.908847083E0,1.021341085E-1,-3.474720567E-2,4.220870882E-2,1.158461028E-1
6.918804083E0,8.347760141E-2,-3.833049163E-2,4.209525883E-2,1.010432944E-1
6.928762083E0,6.126035750E-2,-3.517908975E-2,4.568628967E-2,8.412869202E-2
6.938719083E0,4.664546251E-2,-3.428000584E-2,4.473261163E-2,7.315684873E-2
6.948677083E0,2.451033890E-2,-3.116672486E-2,4.296518862E-2,5.846476618E-2
6.958634083E0,7.499929518E-3,-3.770212084E-2,4.263336211E-2,5.740472475E-2
6.968592083E0,-7.640221622E-3,-4.135017842E-2,4.507166520E-2,6.164142475E-2
6.978549083E0,-1.815225184E-2,-4.038691148E-2,4.435127974E-2,6.267090936E-2
6.988507083E0,-2.674247511E-2,-4.350071773E-2,4.435805976E-2,6.763955857E-2
6.998464083E0,-3.287813067E-2,-4.588557780E-2,4.132604599E-2,6.995927246E-2
7.008422083E0,-3.208512813E-2,-4.473126307E-2,3.680688143E-2,6.621999595E-2
7.018379083E0,-2.931171283E-2,-4.588733986E-2,3.460577875E-2,6.451654355E-2
7.028337083E0,-1.997058466E-2,-4.859904945E-2,3.336472064E-2,6.224063337E-2
7.038294083E0,-1.585680060E-2,-5.055966973E-2,3.179638460E-2,6.179586072E-2
7.048252083E0,1.660770737E-3,-5.252615362E-2,2.699738368E-2,5.908141586E-2
7.058209083E0,1.880327240E-2,-5.366412178E-2,2.016957104E-2,6.033417452E-2
7.068167083E0,3.901968151E-2,-5.632339418E-2,1.440893766E-2,7.001769606E-2
7.078124083E0,5.376321077E-2,-5.708585680E-2,8.094582707E-3,7.883400375E-2
7.088082083E0,6.451357901E-2,-5.994480848E-2,8.474234492E-3,8.847143376E-2
7.098040083E0,7.212783396E-2,-5.571890250E-2,6.248364225E-3,9.135678729E-2
7.107997083E0,8.018231392E-2,-5.347153172E-2,2.340635285E-3,9.640480664E-2
7.117955083E0,8.697336912E-2,-5.254342034E-2,-9.237989783E-3,1.020319480E-1
7.127912083E0,8.857330680E-2,-5.304909497E-2,-1.181476377E-2,1.039183612E-1
7.137870083E0,8.411597461E-2,-4.778003320E-2,-1.635598578E-2,9.811191073E-2
7.147827083E0,7.552257180E-2,-4.294119775E-2,-1.190225594E-2,8.768847708E-2
7.157785083E0,6.230743974E-2,-4.177153856E-2,-1.107667573E-2,7.582724593E-2
7.167742083E0,4.628229886E-2,-4.116537422E-2,-2.052352950E-2,6.525223740E-2
7.177700083E0,2.817280777E-2,-3.792324290E-2,-2.629965916E-2,5.406987628E-2
7.187657083E0,5.166203715E-3,-3.075816669E-2,-2.517026477E-2,4.007863155E-2
7.197615083E0,-2.656562626E-2,-2.607233636E-2,-2.356304787E-2,4.405356339E-2
7.207572083E0,-5.428273976E-2,-2.180488780E-2,-1.693177409E-2,6.089953975E-2
7.217530083E0,-7.916305959E-2,-1.902774349E-2,-1.426888071E-2,8.265861106E-2
7.227487083E0,-9.697659314E-2,-1.322673447E-2,-2.316576801E-2,1.005786206E-1
7.237445083E0,-1.105645746E-1,-1.237878390E-2,-2.705318294E-2,1.144973107E-1
7.247402083E0,-1.163152233E-1,-4.891151097E-3,-2.418862097E-2,1.189043477E-1
7.257360083E0,-1.237965748E-1,1.145702321E-3,-1.778611727E-2,1.250729808E-1
7.267317083E0,-1.226153746E-1,8.837580681E-3,-1.504133735E-2,1.238502110E-1
7.277275083E0,-1.123366356E-1,1.198037621E-2,-1.718118787E-2,1.142726666E-1
7.287232083E0,-1.021141112E-1,1.768765040E-2,-2.586930245E-2,1.068146314E-1
7.297190083E0,-8.909098804E-2,2.638580091E-2,-3.188671172E-2,9.823531455E-2
7.307147083E0,-7.218814641E-2,3.260402009E-2,-2.934156172E-2,8.446939003E-2
7.317105083E0,-6.231980026E-2,4.142973945E-2,-1.825455390E-2,7.702862814E-2
7.327062083E0,-4.715203121E-2,4.904291779E-2,-1.691738144E-2,7.010506135E-2
7.337020083E0,-3.186389059E-2,5.202432722E-2,-2.185594849E-2,6.480370846E-2
7.346978083E0,-1.530294493E-2,5.307127535E-2,-3.430773318E-2,6.502123458E-2
7.356935083E0,-3.155201674E-3,5.821170658E-2,-4.150173068E-2,7.156082539E-2
7.366893083E0,9.769909084E-3,6.584052742E-2,-3.972517699E-2,7.751461708E-2
7.376850083E0,1.369008236E-2,6.599445641E-2,-3.791262954E-2,7.733080958E-2
7.386808083E0,1.563083008E-2,6.732182205E-2,-3.884354234E-2,7.928033397E-2
7.396765083E0,1.261586603E-2,6.673698872E-2,-4.842586070E-2,8.341492507E-2
7.406723083E0,7.352209650E-3,7.125914097E-2,-5.816936493E-2,9.227998252E-2
7.416680083E0,7.116179913E-4,7.176301628E-2,-6.355693936E-2,9.586407798E-2
7.426638083E0,-1.721474342E-2,7.605874538E-2,-5.511781946E-2,9.549478605E-2
7.436595083E0,-4.019595683E-2,7.400598377E-2,-4.509687424E-2,9.553182006E-2
7.446553083E0,-5.893795565E-2,7.292740047E-2,-3.916788101E-2,1.016179672E-1
7.456510083E0,-7.840832323E-2,6.962827593E-2,-4.656960443E-2,1.147374831E-1
7.466468083E0,-9.550029784E-2,6.833722442E-2,-5.539544299E-2,1.298419741E-1
7.476425083E0,-1.090848148E-1,6.612227112E-2,-5.988100544E-2,1.409162388E-1
7.486383083E0,-1.214362308E-1,6.410188228E-2,-5.052257329E-2,1.463158907E-1
7.496340083E0,-1.278027743E-1,5.767594278E-2,-4.310300574E-2,1.466899199E-1
7.506298083E0,-1.294396520E-1,4.482147470E-2,-4.136846587E-2,1.430906638E-1
7.516255083E0,-1.276478767E-1,3.916199133E-2,-4.556427523E-2,1.410806336E-1
7.526213083E0,-1.200645268E-1,3.378485143E-2,-5.165640637E-2,1.350010781E-1
7.536170083E0,-1.060379148E-1,2.720258385E-2,-4.385228083E-2,1.179281242E-1
7.546128083E0,-1.000346094E-1,2.260710858E-2,-3.258547187E-2,1.076095601E-1
7.556085083E0,-8.705303073E-2,1.646133140E-2,-2.099912055E-2,9.105036329E-2
7.566043083E0,-7.766227424E-2,7.861364633E-3,-1.295931451E-2,7.912757880E-2
7.576000083E0,-6.178157777E-2,-2.689992543E-4,-1.487812214E-2,6.354836135E-2
7.585958083E0,-4.267438501E-2,-2.460186835E-3,-2.082807012E-2,4.754959685E-2
7.595916083E0,-2.129772305E-2,-2.877237741E-3,-2.061688155E-2,2.978132484E-2
7.605873083E0,-4.656871781E-3,-5.037141964E-3,-1.129238121E-2,1.321276381E-2
7.615831083E0,1.306060608E-2,-1.349560916E-2,-3.072533756E-3,1.903027487E-2
7.625788083E0,2.775744908E-2,-2.333421074E-2,-2.775341272E-5,3.626240671E-2
7.635745458E0,3.633549064E-2,-2.981900610E-2,-6.508288905E-3,4.745312244E-2
7.645702458E0,4.956668988E-2,-3.014353663E-2,-1.129751652E-2,5.910265160E-2
7.655660458E0,5.103435740E-2,-2.800501883E-2,-1.472979970E-2,6.004792847E-2
7.665617458E0,4.725338519E-2,-3.094392829E-2,-2.685055137E-3,5.654749005E-2
7.675575458E0,4.311376810E-2,-4.037418216E-2,9.273603559E-3,5.979022753E-2
7.685532458E0,3.222107142E-2,-4.256840423E-2,1.658092067E-2,5.590342934E-2
7.695490458E0,1.954735257E-2,-4.909980670E-2,1.263464801E-2,5.433713592E-2
7.705447458E0,4.247323610E-3,-4.848701879E-2,3.910947591E-3,4.882956339E-2
7.715405458E0,-7.768060081E-3,-4.784865677E-2,-3.434522077E-4,4.847633105E-2
7.725362458E0,-1.658437401E-2,-4.974258691E-2,4.863495007E-3,5.265947206E-2
7.735320458E0,-2.502792329E-2,-5.315249786E-2,1.301676314E-2,6.017492082E-2
7.745277458E0,-2.809445933E-2,-5.939042568E-2,1.369907893E-2,6.711323320E-2
7.755235458E0,-3.719101846E-2,-6.041547284E-2,1.462079864E-2,7.243596458E-2
7.765192458E0,-3.330076113E-2,-5.918075144E-2,9.346433915E-3,6.854675675E-2
7.775150458E0,-3.068473935E-2,-5.722333491E-2,1.129107457E-2,6.590562686E-2
7.785107458E0,-2.874126099E-2,-5.382912606E-2,1.934046298E-2,6.401318930E-2
7.795065458E0,-1.891393028E-2,-5.450902879E-2,3.376627713E-2,6.685157029E-2
7.805022458E0,-7.018307224E-3,-5.804533139E-2,4.436052963E-2,7.339191864E-2
7.814980458E0,3.976020031E-3,-6.258895248E-2,4.554297403E-2,7.750708478E-2
7.824937458E0,1.602035761E-2,-6.025608256E-2,3.950337321E-2,7.381032339E-2
7.834895458E0,3.611310571E-2,-5.532151088E-2,3.665192425E-2,7.555123773E-2
7.844852458E0,5.388464034E-2,-5.376949906E-2,4.223919660E-2,8.705666673E-2
7.854810458E0,7.221783698E-2,-5.673066527E-2,5.293498561E-2,1.059995144E-1
7.864767458E0,9.173544496E-2,-5.814137310E-2,5.350605771E-2,1.210731570E-1
7.874725458E0,1.110534817E-1,-6.028734893E-2,5.128471553E-2,1.363728796E-1
7.884683458E0,1.272675246E-1,-5.815458298E-2,4.357694089E-2,1.465534992E-1
7.894640458E0,1.437588781E-1,-5.704351142E-2,4.044906050E-2,1.598646419E-1
7.904598458E0,1.486109644E-1,-5.544899032E-2,4.447230697E-2,1.647349245E-1
7.914555458E0,1.497340202E-1,-6.059980765E-2,5.296246707E-2,1.699930482E-1
7.924513458E0,1.394414455E-1,-6.214810163E-2,6.396216154E-2,1.655217852E-1
7.934470458E0,1.280705482E-1,-6.111878902E-2,6.462715566E-2,1.559302438E-1
7.944428458E0,1.094971299E-1,-5.625374988E-2,5.559404939E-2,1.350733288E-1
7.954385458E0,9.384972602E-2,-5.141079053E-2,4.772840440E-2,1.171701372E-1
7.964343458E0,7.622475922E-2,-5.161130801E-2,4.347447306E-2,1.018035895E-1
7.974300458E0,5.833603814E-2,-5.073646083E-2,4.832089692E-2,9.117121741E-2
7.984258458E0,3.758530319E-2,-4.928998649E-2,5.135017633E-2,8.049222567E-2
7.994215458E0,2.348439954E-2,-5.366688967E-2,4.488056153E-2,7.379645569E-2
8.004173458E0,1.613495499E-2,-5.738641694E-2,2.965600044E-2,6.658089804E-2
8.014130458E0,1.653149910E-2,-5.592567101E-2,1.701184548E-2,6.074844877E-2
8.024088458E0,1.077286247E-2,-5.461952835E-2,1.292270236E-2,5.715193505E-2
8.034045458E0,1.505860128E-3,-5.076486617E-2,2.409413084E-2,5.621268890E-2
8.044003458E0,-6.742826663E-3,-4.740029201E-2,3.909083456E-2,6.180895356E-2
8.053960458E0,-7.090102881E-3,-3.857457638E-2,4.168182611E-2,5.723322575E-2
8.063918458E0,5.101915449E-4,-3.575193509E-2,2.725082636E-2,4.495629762E-2
8.073875458E0,1.194527280E-2,-3.283790499E-2,1.644318551E-2,3.861859521E-2
8.083833458E0,2.546198107E-2,-2.857174352E-2,1.289891452E-2,4.038612390E-2
8.093790458E0,3.690531850E-2,-2.327844314E-2,2.104019746E-2,4.844149417E-2
8.103748458E0,4.673440382E-2,-1.564541087E-2,3.138694167E-2,5.842964563E-2
8.113706458E0,6.172267348E-2,-1.182643790E-2,2.526566386E-2,6.773408909E-2
8.123663458E0,7.615835220E-2,-5.903660320E-3,5.603285972E-3,7.659206635E-2
8.133621458E0,9.473709762E-2,3.162805457E-3,-4.208864644E-3,9.488327327E-2
8.143578458E0,1.054083854E-1,1.094933134E-2,-8.703140542E-3,1.063323103E-1
8.153536458E0,1.021963432E-1,1.868554763E-2,1.053686719E-2,1.044235023E-1
8.163493458E0,1.009973139E-1,2.234421484E-2,2.485823259E-2,1.063844588E-1
8.173451458E0,9.409866482E-2,2.627850324E-2,2.880131081E-2,1.018559471E-1
8.183408458E0,9.207978845E-2,2.620515041E-2,1.643873379E-2,9.713716754E-2
8.193366458E0,7.622758299E-2,3.308143094E-2,4.200709052E-3,8.320259274E-2
8.203323458E0,6.081825495E-2,3.679881617E-2,1.844984479E-3,7.110848736E-2
8.213281458E0,3.426760063E-2,4.164683446E-2,1.073541492E-2,5.499069382E-2
8.223238458E0,7.723269984E-3,4.344892874E-2,1.845503785E-2,4.783353144E-2
8.233196458E0,-1.340997871E-2,4.666309804E-2,9.940112941E-3,4.955883466E-2
8.243153458E0,-2.826810628E-2,4.471670091E-2,-7.553176954E-3,5.343893389E-2
8.253111458E0,-4.267048091E-2,5.102892593E-2,-2.593458258E-2,7.139554465E-2
8.263068458E0,-5.798091739E-2,5.540381372E-2,-2.717727795E-2,8.467569777E-2
8.273026458E0,-7.235026360E-2,6.267157942E-2,-1.383137982E-2,9.671398336E-2
8.282983458E0,-8.189253509E-2,6.401361525E-2,-2.349370159E-3,1.039694656E-1
8.292941458E0,-8.777572215E-2,6.017067283E-2,-6.267147139E-3,1.066037729E-1
8.302898458E0,-8.386539668E-2,5.883168429E-2,-1.720436662E-2,1.038776303E-1
8.312856458E0,-7.875798643E-2,5.776349083E-2,-3.281901404E-2,1.030365420E-1
8.322813458E0,-7.452694327E-2,6.331464648E-2,-3.588795662E-2,1.041679181E-1
8.332771458E0,-7.487156242E-2,6.616210192E-2,-2.346430905E-2,1.026340508E-1
8.342728458E0,-6.813968718E-2,6.381762028E-2,-1.867005788E-2,9.520649499E-2
8.352686458E0,-5.704868585E-2,6.189082190E-2,-2.657005936E-2,8.826661004E-2
8.362643458E0,-3.904440254E-2,6.220959127E-2,-4.563692212E-2,8.647096204E-2
8.372601458E0,-1.866775751E-2,6.158348173E-2,-5.734790862E-2,8.619624711E-2
8.382559458E0,-8.562761359E-4,6.051414460E-2,-5.815834925E-2,8.393502542E-2
8.392516458E0,8.501273580E-3,6.047260016E-2,-4.774778709E-2,7.751811527E-2
8.402474458E0,1.365501992E-2,6.074102223E-2,-3.605803102E-2,7.194520798E-2
8.412431458E0,2.054781280E-2,6.171680614E-2,-3.460660949E-2,7.368035147E-2
8.422389458E0,2.387712710E-2,6.204143912E-2,-4.438572004E-2,7.993340672E-2
8.432346458E0,1.414140873E-2,6.240948662E-2,-4.996877164E-2,8.118991070E-2
8.442304458E0,4.512930289E-3,6.931809336E-2,-4.493305087E-2,8.273054857E-2
8.452261458E0,-1.437127870E-2,7.172133029E-2,-3.274642676E-2,8.014244403E-2
8.462219458E0,-3.178285062E-2,6.958979368E-2,-2.536057867E-2,8.059806405E-2
8.472176458E0,-4.702518880E-2,6.705579162E-2,-3.096520342E-2,8.755964478E-2
8.482134458E0,-6.496602297E-2,6.282896549E-2,-4.156099632E-2,9.947552191E-2
8.492091458E0,-8.157908171E-2,6.276797503E-2,-5.011187494E-2,1.144821614E-1
8.502049458E0,-9.324940294E-2,6.234522536E-2,-5.062127113E-2,1.230645821E-1
8.512006458E0,-1.092811003E-1,5.873850361E-2,-4.553410038E-2,1.321587114E-1
8.521964458E0,-1.176895052E-1,5.632086471E-2,-4.293531179E-2,1.373546520E-1
8.531921458E0,-1.244139895E-1,5.363053828E-2,-4.573801905E-2,1.429931530E-1
8.541879458E0,-1.268229932E-1,5.341822654E-2,-4.855494946E-2,1.459286183E-1
8.551836458E0,-1.255326867E-1,5.182352662E-2,-4.999438673E-2,1.447189416E-1
8.561794458E0,-1.220029369E-1,5.422809720E-2,-4.757250845E-2,1.417340704E-1
8.571751458E0,-1.167791486E-1,5.143470317E-2,-4.302223027E-2,1.346618377E-1
8.581709458E0,-1.049761176E-1,4.622264206E-2,-4.107787088E-2,1.218355834E-1
8.591666458E0,-8.860512078E-2,3.967206180E-2,-4.068319127E-2,1.052609233E-1
8.601624458E0,-7.165597379E-2,4.018812999E-2,-4.381944612E-2,9.311180500E-2
8.611581458E0,-5.571642518E-2,4.037562013E-2,-4.647648335E-2,8.303357297E-2
8.621539458E0,-3.705022484E-2,3.981400281E-2,-4.456393421E-2,7.031229062E-2
8.631497458E0,-1.878200658E-2,4.222602397E-2,-4.204139113E-2,6.247623100E-2
8.641454583E0,-1.132179517E-3,4.271357879E-2,-3.968932480E-2,5.831787159E-2
8.651412583E0,1.521749888E-2,3.823254257E-2,-3.628447652E-2,5.486221669E-2
8.661369583E0,3.099442646E-2,3.883095086E-2,-3.227906674E-2,5.924892713E-2
8.671327583E0,4.068220779E-2,3.745063394E-2,-2.526882850E-2,6.079560599E-2
8.681284583E0,4.434379563E-2,3.435797989E-2,-1.936376095E-2,5.934474055E-2
8.691242583E0,4.309557006E-2,3.032089211E-2,-1.309441403E-2,5.429593296E-2
8.701199583E0,3.671471775E-2,3.150339797E-2,-6.212716922E-3,4.877532608E-2
8.711157583E0,2.470359392E-2,2.545615844E-2,1.013707370E-4,3.547243763E-2
8.721114583E0,1.301721018E-2,2.135200426E-2,1.302052289E-3,2.504099013E-2
8.731072583E0,-1.994497143E-3,1.441899780E-2,8.626310155E-4,1.458182597E-2
8.741029583E0,-1.337472908E-2,1.080866531E-2,-1.531895250E-3,1.726433685E-2
8.750987583E0,-2.506414056E-2,6.310853176E-3,1.480672508E-3,2.588880841E-2
8.760944583E0,-3.928515688E-2,-5.097621121E-3,7.482980378E-3,4.031506278E-2
8.770902583E0,-4.461014643E-2,-1.005243137E-2,8.553571068E-3,4.652182412E-2
8.780859583E0,-4.744783044E-2,-1.615653373E-2,1.197693869E-2,5.153423383E-2
8.790817583E0,-4.862787575E-2,-2.465068549E-2,1.227201708E-2,5.588317276E-2
8.800774583E0,-4.840692133E-2,-2.764930017E-2,1.293189824E-2,5.722715985E-2
8.810732583E0,-4.399326444E-2,-3.697888553E-2,1.484884135E-2,5.935767331E-2
8.820689583E0,-4.135922715E-2,-4.183324054E-2,1.838135906E-2,6.163181034E-2
8.830647583E0,-3.408586606E-2,-4.699737579E-2,2.507814392E-2,6.324170221E-2
8.840604583E0,-2.369864658E-2,-5.015141144E-2,2.516486123E-2,6.091026318E-2
8.850562583E0,-6.271720398E-3,-5.541967601E-2,2.161433548E-2,5.981516918E-2
8.860519583E0,9.861152619E-3,-6.432735175E-2,1.795548573E-2,6.751036944E-2
8.870477583E0,2.736291662E-2,-6.870372593E-2,1.769902557E-2,7.604069088E-2
8.880434583E0,4.889902472E-2,-7.598409802E-2,1.896801218E-2,9.232812820E-2
8.890392583E0,6.343828142E-2,-7.886776328E-2,2.206233889E-2,1.035919226E-1
8.900349583E0,8.178266883E-2,-8.394430578E-2,1.799603552E-2,1.185702690E-1
8.910307583E0,1.008000374E-1,-8.506709337E-2,1.746340096E-2,1.330489695E-1
8.920265583E0,1.093489677E-1,-9.135705978E-2,1.831754297E-2,1.436622479E-1
8.930222583E0,1.164910346E-1,-9.359251708E-2,2.746230550E-2,1.519338627E-1
8.940180583E0,1.140877157E-1,-9.396305680E-2,3.292656690E-2,1.514239801E-1
8.950137583E0,1.069733500E-1,-9.591221809E-2,4.293153435E-2,1.499518851E-1
8.960095583E0,1.020483524E-1,-9.622627497E-2,4.645299166E-2,1.477539937E-1
8.970052583E0,8.754798025E-2,-9.689898789E-2,4.485269636E-2,1.380790609E-1
8.980010583E0,7.812455297E-2,-9.730000794E-2,4.388473555E-2,1.322747419E-1
8.989967583E0,6.187447906E-2,-9.601263702E-2,4.876684397E-2,1.241977564E-1
8.999925583E0,4.393000901E-2,-9.339573234E-2,4.913864657E-2,1.143119202E-1
9.009882583E0,3.051593527E-2,-9.143777937E-2,5.112589896E-2,1.091143774E-1
9.019840583E0,1.916820370E-2,-8.839831501E-2,5.117836222E-2,1.039274116E-1
9.029797583E0,1.107405871E-2,-8.622436970E-2,4.816206545E-2,9.938239912E-2
9.039755583E0,4.754926078E-3,-8.362471312E-2,5.031877756E-2,9.771223742E-2
9.049712583E0,-1.753838733E-4,-8.086568117E-2,5.461871624E-2,9.758326350E-2
9.059670583E0,-4.648083355E-3,-7.629294693E-2,5.584404618E-2,9.466137504E-2
9.069627583E0,-3.306649160E-3,-6.974263489E-2,5.538970977E-2,8.912344809E-2
9.079585583E0,1.377498731E-3,-6.239566579E-2,5.000208318E-2,7.997077551E-2
9.089542583E0,7.484925911E-3,-5.255555362E-2,4.883455485E-2,7.213129750E-2
9.099500583E0,1.578359306E-2,-4.511635378E-2,4.874236882E-2,6.826731067E-2
9.109457583E0,2.729430795E-2,-3.848508373E-2,4.923798516E-2,6.819428201E-2
9.119415583E0,4.011042044E-2,-3.185261786E-2,4.141189158E-2,6.586637880E-2
9.129372583E0,5.741377920E-2,-2.839716338E-2,3.704564273E-2,7.399405770E-2
9.139330583E0,7.570605725E-2,-1.779169030E-2,2.926610410E-2,8.309305746E-2
9.149287583E0,8.698987216E-2,-1.371598803E-2,2.983495593E-2,9.298113132E-2
9.159245583E0,1.037774608E-1,-9.681644849E-3,2.612861060E-2,1.074532452E-1
9.169202583E0,1.134053245E-1,-5.277575925E-3,2.241136879E-2,1.157190126E-1
9.179160583E0,1.156287044E-1,-1.988250064E-3,1.970862783E-2,1.173131725E-1
9.189118583E0,1.156737134E-1,5.814013071E-3,1.671337150E-2,1.170194322E-1
9.199075583E0,1.071707681E-1,1.475315448E-2,1.410807483E-2,1.090975109E-1
9.209033583E0,9.955492616E-2,2.296927199E-2,1.629159972E-2,1.034610410E-1
9.218990583E0,8.767040074E-2,2.816235647E-2,1.600422151E-2,9.346310820E-2
9.228948583E0,7.019739598E-2,3.231022879E-2,1.209922880E-2,7.821775134E-2
9.238905583E0,5.317730829E-2,3.346396983E-2,1.178853773E-2,6.392677855E-2
9.248863583E0,3.308828548E-2,3.375691548E-2,7.808177732E-3,4.790961926E-2
9.258820583E0,1.713434234E-2,4.194739088E-2,5.441384390E-3,4.563746217E-2
9.268778583E0,2.677905373E-3,4.753736779E-2,6.620099768E-3,4.807076278E-2
9.278735583E0,-1.763063483E-2,4.926652089E-2,9.949424304E-3,5.326368753E-2
9.288693583E0,-3.397658467E-2,5.319708213E-2,8.993615396E-3,6.375910109E-2
9.298650583E0,-5.026430264E-2,5.284908414E-2,7.089213468E-3,7.327880159E-2
9.308608583E0,-6.209885702E-2,5.658310279E-2,4.766137805E-3,8.414648914E-2
9.318565583E0,-7.109537721E-2,6.277866662E-2,5.163276102E-3,9.498617301E-2
9.328523583E0,-7.614819705E-2,7.023365051E-2,5.048493855E-3,1.037149983E-1
9.338480583E0,-7.556042820E-2,6.782624871E-2,1.302190125E-3,1.015454284E-1
9.348438583E0,-6.983649731E-2,6.329088658E-2,-3.613738343E-3,9.431824736E-2
9.358395583E0,-6.349435449E-2,6.471934915E-2,-9.681586176E-3,9.118037243E-2
9.368353583E0,-5.187550932E-2,6.551776826E-2,-1.878666691E-2,8.565386903E-2
9.378310583E0,-3.691770136E-2,6.604319066E-2,-2.134084515E-2,7.861330281E-2
9.388268583E0,-2.153661475E-2,6.124044582E-2,-2.115042880E-2,6.827560778E-2
9.398225583E0,-2.835640684E-3,5.776015297E-2,-2.519314922E-2,6.307908446E-2
9.408183583E0,7.185036317E-3,5.076402798E-2,-2.978683449E-2,5.929474507E-2
9.418140583E0,1.669494249E-2,4.724860936E-2,-3.596125543E-2,6.167952727E-2
9.428098583E0,1.482140832E-2,4.636311531E-2,-3.753731400E-2,6.146757314E-2
9.438056583E0,1.831191964E-2,4.859407246E-2,-3.994063661E-2,6.551308825E-2
9.448013583E0,1.654011756E-2,4.659563676E-2,-4.019070789E-2,6.371830078E-2
9.457971583E0,1.406887826E-2,4.048320279E-2,-4.774759337E-2,6.416116985E-2
9.467928583E0,4.073769785E-3,3.235124424E-2,-5.006267875E-2,5.974504505E-2
9.477886583E0,-1.317029074E-2,3.014140762E-2,-5.144822225E-2,6.106456079E-2
9.487843583E0,-2.400403097E-2,2.952728234E-2,-5.378487706E-2,6.588525560E-2
9.497801583E0,-3.417684883E-2,2.946143970E-2,-5.198866501E-2,6.883933988E-2
9.507758583E0,-4.658158869E-2,2.634927072E-2,-5.012764782E-2,7.332741334E-2
9.517716583E0,-5.743131787E-2,1.801427640E-2,-4.725432396E-2,7.652347064E-2
9.527673583E0,-7.564520836E-2,1.050789002E-2,-4.251975566E-2,8.741019919E-2
9.537631583E0,-9.421355277E-2,4.557130858E-3,-3.721044213E-2,1.013981162E-1
9.547588583E0,-1.130927056E-1,7.197388913E-3,-3.529828787E-2,1.186917503E-1
9.557546583E0,-1.235107258E-1,7.204097230E-3,-3.249520063E-2,1.279169124E-1
9.567503583E0,-1.349569857E-1,1.821315964E-3,-3.092579916E-2,1.384670005E-1
9.577461583E0,-1.343804449E-1,-1.868499210E-3,-3.138649836E-2,1.380098096E-1
9.587418583E0,-1.375663877E-1,-1.083296537E-2,-2.669320628E-2,1.405503163E-1
9.597376583E0,-1.369489431E-1,-1.162346732E-2,-2.335445583E-2,1.394114365E-1
9.607333583E0,-1.307403147E-1,-1.146207936E-2,-2.080048621E-2,1.328799059E-1
9.617291583E0,-1.139688045E-1,-1.479246095E-2,-2.651905455E-2,1.179447563E-1
9.627248583E0,-9.164538980E-2,-2.270204946E-2,-3.070634417E-2,9.928313096E-2
9.637206458E0,-6.963080913E-2,-3.117788397E-2,-3.438320011E-2,8.368222319E-2
9.647163458E0,-5.308271945E-2,-3.565199673E-2,-2.777616866E-2,6.971625004E-2
9.657121458E0,-4.397098720E-2,-3.403792530E-2,-1.981894672E-2,5.903235319E-2
9.667078458E0,-3.059819341E-2,-2.930016071E-2,-1.915395632E-2,4.649325650E-2
9.677036458E0,-1.682147756E-2,-2.958976105E-2,-2.531618252E-2,4.241963182E-2
9.686993458E0,1.778839156E-3,-3.182495013E-2,-3.317144141E-2,4.600365469E-2
9.696951458E0,1.450118609E-2,-3.344954550E-2,-3.797264397E-2,5.264103136E-2
9.706908458E0,1.809006184E-2,-3.216217458E-2,-2.811681852E-2,4.639193136E-2
9.716866458E0,1.468007918E-2,-3.366367519E-2,-1.992783137E-2,4.178356393E-2
9.726823458E0,1.466836128E-2,-2.585928328E-2,-2.078057453E-2,3.627251897E-2
9.736781458E0,1.591417938E-2,-2.828072757E-2,-3.657921404E-2,4.889887071E-2
9.746739458E0,1.472028345E-2,-2.861388959E-2,-4.697965458E-2,5.694321177E-2
9.756696458E0,5.639260635E-3,-2.942570299E-2,-4.773042351E-2,5.635482752E-2
9.766654458E0,-1.735580340E-2,-2.244688943E-2,-3.155039251E-2,4.243246427E-2
9.776611458E0,-3.453025967E-2,-1.398600172E-2,-1.769457012E-2,4.124372545E-2
9.786569458E0,-5.090390891E-2,-5.989594385E-3,-1.295920275E-2,5.286798766E-2
9.796526458E0,-5.763363093E-2,-1.910826424E-3,-1.742599718E-2,6.024078394E-2
9.806484458E0,-6.376662850E-2,4.183018580E-3,-2.299999446E-2,6.791671591E-2
9.816441458E0,-7.474151254E-2,5.763580091E-3,-2.410726249E-2,7.874435000E-2
9.826399458E0,-8.550281078E-2,1.380579360E-2,-6.571411155E-3,8.685916205E-2
9.836356458E0,-8.696942031E-2,2.025705948E-2,3.564504907E-3,8.936853039E-2
9.846314458E0,-8.243219554E-2,2.632986568E-2,6.208757870E-3,8.675757813E-2
9.856271458E0,-6.158495694E-2,2.609318681E-2,-1.837942749E-3,6.690993464E-2
9.866229458E0,-4.223176092E-2,2.788096666E-2,-7.197821513E-3,5.111436752E-2
9.876186458E0,-1.910992339E-2,2.861106209E-2,-9.303960949E-3,3.564190982E-2
9.886144458E0,-2.523223870E-3,3.531716764E-2,5.272319075E-3,3.579757446E-2
9.896101458E0,2.050456963E-2,4.159662873E-2,1.784699783E-2,4.969136976E-2
9.906059458E0,4.136617482E-2,4.542625323E-2,2.352725342E-2,6.578933466E-2
9.916016458E0,6.245851889E-2,4.675126821E-2,1.724616811E-2,7.990105116E-2
9.925974458E0,8.313477039E-2,4.925171286E-2,1.530578919E-2,9.783347306E-2
9.935931458E0,9.379637241E-2,5.181956291E-2,1.943253353E-2,1.089066111E-1
9.945889458E0,9.958209097E-2,5.482148007E-2,2.634636499E-2,1.166881248E-1
9.955846458E0,1.047504097E-1,5.476280302E-2,2.979115397E-2,1.218980139E-1
9.965804458E0,1.082143784E-1,5.778815225E-2,2.884386852E-2,1.260229780E-1
9.975761458E0,1.134654060E-1,5.462747812E-2,2.201404423E-2,1.278404391E-1
9.985719458E0,1.160268337E-1,4.778075591E-2,1.464987174E-2,1.263322821E-1
9.995676458E0,1.129880026E-1,3.674044460E-2,1.069186348E-2,1.192915125E-1
1.000563446E1,1.040650830E-1,3.088868409E-2,1.654336043E-2,1.098058973E-1
1.001559146E1,8.982827514E-2,2.139176615E-2,1.998868212E-2,9.447896108E-2
1.002554946E1,7.214568555E-2,1.588727906E-2,2.123157866E-2,7.686472216E-2
1.003550746E1,5.652862042E-2,4.357914906E-3,2.570199035E-2,6.225004945E-2
1.004546446E1,3.566487879E-2,-3.939429764E-3,2.335441485E-2,4.281274785E-2
1.005542246E1,1.460904442E-2,-1.581702195E-2,2.993929572E-2,3.687768689E-2
1.006537946E1,-2.448768821E-3,-2.224029973E-2,3.660758585E-2,4.290387794E-2
1.007533746E1,-1.196324639E-2,-3.455980495E-2,3.754790127E-2,5.241511492E-2
1.008529446E1,-1.721952856E-2,-4.258896783E-2,4.193865508E-2,6.220275825E-2
1.009525246E1,-1.594035700E-2,-4.962115362E-2,3.906704485E-2,6.513515074E-2
1.010520946E1,-8.335967548E-3,-5.615096167E-2,3.788007423E-2,6.824455198E-2
1.011516746E1,-5.056250840E-3,-6.201523915E-2,3.691172227E-2,7.234591074E-2
1.012512446E1,7.045685314E-3,-6.733517349E-2,3.926915303E-2,7.826706619E-2
1.013508246E1,1.990786195E-2,-7.245663553E-2,4.484485090E-2,8.750627207E-2
1.014503946E1,3.387081623E-2,-7.540395856E-2,4.786540568E-2,9.552008281E-2
1.015499746E1,4.981622100E-2,-8.300203085E-2,5.284653977E-2,1.102893910E-1
1.016495446E1,6.623647362E-2,-8.705615997E-2,5.588840321E-2,1.228395663E-1
1.017491246E1,7.796441019E-2,-8.900178224E-2,6.044882536E-2,1.328677048E-1
1.018486946E1,8.845087886E-2,-8.874718845E-2,6.226377189E-2,1.399156843E-1
1.019482746E1,9.871159494E-2,-9.135631472E-2,6.058580428E-2,1.475147277E-1
1.020478446E1,1.025585309E-1,-9.494999051E-2,5.746883899E-2,1.511172406E-1
1.021474246E1,1.082304567E-1,-9.955007583E-2,5.383205414E-2,1.565948256E-1
1.022469946E1,1.057989895E-1,-1.026819572E-1,4.830626398E-2,1.551467230E-1
1.023465746E1,1.039571390E-1,-1.054820493E-1,4.085595533E-2,1.536318930E-1
1.024461446E1,1.007682756E-1,-1.040721759E-1,3.914061189E-2,1.500574912E-1
1.025457246E1,9.032902122E-2,-1.056317389E-1,3.318796307E-2,1.428944968E-1
1.026452946E1,7.544487715E-2,-1.019267440E-1,3.022519499E-2,1.303631583E-1
1.027448746E1,5.680302903E-2,-1.038603634E-1,3.085286543E-2,1.223333907E-1
1.028444446E1,3.736115620E-2,-1.024845764E-1,3.005764633E-2,1.131477198E-1
1.029440246E1,1.466382761E-2,-1.038236693E-1,3.054622188E-2,1.092128830E-1
1.030435946E1,-2.767094411E-3,-9.850160778E-2,2.690328285E-2,1.021470028E-1
1.031431746E1,-1.614976861E-2,-9.903014451E-2,2.362758666E-2,1.030827212E-1
1.032427546E1,-3.352263197E-2,-9.731719643E-2,2.286299318E-2,1.054377543E-1
1.033423246E1,-4.923367128E-2,-9.611947834E-2,1.834117994E-2,1.095413501E-1
1.034419046E1,-6.045676395E-2,-9.523637593E-2,1.849351265E-2,1.143109689E-1
1.035414746E1,-6.736091524E-2,-9.608624130E-2,7.739568595E-3,1.176008486E-1
1.036410546E1,-6.858863682E-2,-9.007548541E-2,1.518424600E-3,1.132267627E-1
1.037406246E1,-6.466019899E-2,-9.011829644E-2,-1.691976562E-3,1.109284070E-1
1.038402046E1,-5.230952054E-2,-8.760240674E-2,-2.325275913E-3,1.020581918E-1
1.039397746E1,-4.509254172E-2,-8.507575095E-2,7.647238672E-4,9.629021508E-2
1.040393546E1,-3.486333787E-2,-8.304775506E-2,7.174419705E-3,9.035404942E-2
1.041389246E1,-2.140897512E-2,-7.769180834E-2,5.069273990E-3,8.074688129E-2
1.042385046E1,-9.945930913E-3,-7.566461712E-2,3.530765884E-3,7.639713433E-2
1.043380746E1,1.699235290E-4,-6.819522381E-2,3.927061334E-4,6.819656621E-2
1.044376546E1,1.159941126E-2,-6.064889207E-2,5.043650512E-3,6.195379619E-2
1.045372246E1,1.856667921E-2,-5.712787062E-2,8.556193672E-3,6.067556039E-2
1.046368046E1,2.579743043E-2,-5.640695244E-2,6.619010121E-3,6.237838564E-2
1.047363746E1,3.034875914E-2,-5.677667633E-2,-3.079200163E-3,6.445246023E-2
1.048359546E1,3.398157656E-2,-5.304585397E-2,-1.559206191E-2,6.489778551E-2
1.049355246E1,3.377182409E-2,-5.080054700E-2,-2.120199427E-2,6.458139236E-2
1.050351046E1,2.413197979E-2,-4.564733058E-2,-1.960702613E-2,5.523103033E-2
1.051346746E1,1.470511034E-2,-4.295920208E-2,-1.591543853E-2,4.811480539E-2
1.052342546E1,-2.929809038E-3,-4.166889936E-2,-1.620705426E-2,4.480568672E-2
1.053338246E1,-1.702823117E-2,-3.341216594E-2,-2.004241198E-2,4.252095681E-2
1.054334046E1,-3.612256423E-2,-2.826267481E-2,-2.777170576E-2,5.361796410E-2
1.055329746E1,-6.156852096E-2,-2.073059790E-2,-2.944135293E-2,7.132484648E-2
1.056325546E1,-7.715068012E-2,-9.512031451E-3,-2.565114200E-2,8.185772579E-2
1.057321246E1,-9.493412822E-2,-8.199298754E-3,-2.205179445E-2,9.780592436E-2
1.058317046E1,-1.103205457E-1,-3.848758992E-3,-2.557462268E-2,1.133115046E-1
1.059312746E1,-1.283620298E-1,6.995233707E-5,-3.378821909E-2,1.327345446E-1
1.060308546E1,-1.436773539E-1,1.046560146E-2,-4.837914556E-2,1.519646424E-1
1.061304346E1,-1.473858804E-1,1.720972918E-2,-5.400808528E-2,1.579102460E-1
1.062300046E1,-1.487864405E-1,2.863389254E-2,-5.471063033E-2,1.610917681E-1
1.063295846E1,-1.456310600E-1,3.763052076E-2,-4.793056101E-2,1.578664005E-1
1.064291550E1,-1.362034678E-1,4.356430843E-2,-4.080207646E-2,1.487079119E-1
1.065287350E1,-1.206218153E-1,4.838141799E-2,-4.568626732E-2,1.377592790E-1
1.066283050E1,-1.051437929E-1,5.479750410E-2,-5.017076433E-2,1.287442785E-1
1.067278850E1,-8.923772722E-2,6.959270686E-2,-5.039636418E-2,1.238802257E-1
1.068274550E1,-7.132823765E-2,8.024109155E-2,-4.177517816E-2,1.152020650E-1
1.069270350E1,-5.211228132E-2,8.927035332E-2,-3.793141246E-2,1.101075742E-1
1.070266050E1,-3.038621321E-2,9.442037344E-2,-3.428767622E-2,1.049484331E-1
1.071261850E1,-1.541737560E-2,1.005598307E-1,-4.185660556E-2,1.100088653E-1
1.072257550E1,-2.558568958E-3,1.111118048E-1,-4.403320700E-2,1.195462370E-1
1.073253350E1,7.977051660E-3,1.251631230E-1,-4.879233241E-2,1.345738920E-1
1.074249050E1,1.389006898E-2,1.370269656E-1,-4.526391625E-2,1.449763617E-1
1.075244850E1,1.815727726E-2,1.409137845E-1,-3.906733543E-2,1.473520888E-1
1.076240550E1,2.124068514E-2,1.437636316E-1,-3.626356274E-2,1.497804876E-1
1.077236350E1,1.747061685E-2,1.458520889E-1,-3.652349859E-2,1.513671703E-1
1.078232050E1,8.263004012E-3,1.499240547E-1,-3.475809097E-2,1.541221085E-1
1.079227850E1,-2.573214471E-3,1.587778926E-1,-3.249780089E-2,1.620899370E-1
1.080223550E1,-1.176964212E-2,1.595334411E-1,-3.242696077E-2,1.632205596E-1
1.081219350E1,-2.508730814E-2,1.578114480E-1,-2.854122035E-2,1.623219868E-1
1.082215050E1,-3.670348227E-2,1.513098776E-1,-3.001314588E-2,1.585642255E-1
1.083210850E1,-5.416496098E-2,1.525125951E-1,-3.271449730E-2,1.651186633E-1
1.084206550E1,-6.504477561E-2,1.466395259E-1,-3.519842774E-2,1.642342921E-1
1.085202350E1,-7.202100009E-2,1.466945708E-1,-4.119800776E-2,1.685336684E-1
1.086198050E1,-7.737608254E-2,1.451486051E-1,-4.055165872E-2,1.694096005E-1
1.087193850E1,-7.054223865E-2,1.368452162E-1,-3.501278907E-2,1.578883023E-1
1.088189550E1,-6.797973812E-2,1.288448125E-1,-2.751918510E-2,1.482549697E-1
1.089185350E1,-5.783824995E-2,1.228852496E-1,-2.887330204E-2,1.388514144E-1
1.090181150E1,-4.553444684E-2,1.149333194E-1,-3.302809969E-2,1.279605764E-1
1.091176850E1,-3.054030798E-2,1.114811599E-1,-3.035538644E-2,1.195081960E-1
1.092172650E1,-1.443723869E-2,1.086020172E-1,-2.193553746E-2,1.117318209E-1
1.093168350E1,8.272411302E-3,1.032597721E-1,-1.438805554E-2,1.045850346E-1
1.094164150E1,2.693504654E-2,9.435736388E-2,-8.630833589E-3,9.850533051E-2
1.095159850E1,4.139352590E-2,8.368833363E-2,-8.837353438E-3,9.378304744E-2
1.096155650E1,5.792536587E-2,7.730314136E-2,-7.715098560E-3,9.690534774E-2
1.097151350E1,7.265274972E-2,7.819139957E-2,-8.331373334E-3,1.070594638E-1
1.098147150E1,8.285745233E-2,7.084081322E-2,-4.911875352E-3,1.091233465E-1
1.099142850E1,9.159979969E-2,6.219765916E-2,7.353158668E-3,1.109645937E-1
1.100138650E1,9.293670952E-2,5.186859146E-2,1.188772358E-2,1.070929537E-1
1.101134350E1,9.173589200E-2,4.189744964E-2,2.212038636E-2,1.032481557E-1
1.102130150E1,9.079632163E-2,3.639668971E-2,2.238590270E-2,1.003484912E-1
1.103125850E1,8.801829070E-2,2.779098041E-2,2.243747935E-2,9.498946557E-2
1.104121650E1,8.240514249E-2,2.176744305E-2,2.699973993E-2,8.940590048E-2
1.105117350E1,7.370787114E-2,1.173034310E-2,3.637034819E-2,8.302561920E-2
1.106113150E1,5.694992840E-2,7.070344407E-3,4.122795165E-2,7.066136223E-2
1.107108850E1,4.015640914E-2,-5.231794436E-3,3.879467770E-2,5.607972795E-2
1.108104650E1,2.314360440E-2,-1.369505469E-2,3.563883156E-2,4.464646976E-2
1.109100350E1,1.549508329E-2,-2.220749483E-2,2.949253470E-2,4.003848193E-2
1.110096150E1,7.917591371E-3,-2.944650128E-2,2.784936503E-2,4.129614780E-2
1.111091850E1,1.945547760E-3,-4.096709937E-2,3.396167606E-2,5.324926129E-2
1.112087650E1,-1.105635893E-3,-5.293587595E-2,3.779875487E-2,6.505517092E-2
1.113083350E1,-6.868255325E-3,-6.493737549E-2,3.985672444E-2,7.650224931E-2
1.114079150E1,-1.946999691E-3,-7.394444942E-2,3.562709317E-2,8.210275377E-2
1.115074850E1,4.141055048E-3,-7.795896381E-2,3.041282296E-2,8.378357939E-2
1.116070650E1,1.796153001E-2,-8.188073337E-2,3.387280181E-2,9.041259735E-2
1.117066350E1,2.679149993E-2,-8.977732062E-2,3.908608854E-2,1.015158809E-1
1.118062150E1,4.191505909E-2,-9.611751139E-2,4.445289075E-2,1.138925268E-1
1.119057850E1,5.245878175E-2,-1.045866013E-1,4.048576951E-2,1.238118673E-1
1.120053650E1,6.300623715E-2,-1.077251360E-1,3.438766301E-2,1.294488401E-1
1.121049450E1,7.368063182E-2,-1.080171391E-1,3.325109556E-2,1.349154298E-1
1.122045150E1,8.515193313E-2,-1.049768701E-1,3.775609657E-2,1.403442831E-1
1.123040950E1,9.469768405E-2,-1.049610004E-1,4.098790884E-2,1.471885581E-1
1.124036650E1,1.078030989E-1,-1.084585264E-1,4.580503330E-2,1.596335214E-1
1.125032450E1,1.125964224E-1,-1.103249192E-1,4.829602316E-2,1.648697910E-1
1.126028150E1,1.181632280E-1,-1.076433808E-1,4.963612556E-2,1.673720133E-1
1.127023950E1,1.192179322E-1,-9.965609014E-2,5.036146939E-2,1.633417560E-1
1.128019650E1,1.133592427E-1,-9.557479620E-2,5.138199404E-2,1.569234491E-1
1.129015450E1,1.048382744E-1,-9.301697463E-2,5.556815118E-2,1.507681690E-1
1.130011150E1,9.150302410E-2,-8.939481527E-2,5.853943899E-2,1.406808528E-1
1.131006950E1,7.670970261E-2,-8.823823184E-2,6.022902578E-2,1.315214795E-1
1.132002650E1,6.288948655E-2,-8.578519523E-2,5.438658223E-2,1.194658427E-1
1.132998450E1,4.330877587E-2,-7.974958420E-2,5.180281028E-2,1.044948678E-1
1.133994150E1,2.710343897E-2,-7.503286004E-2,4.352676868E-2,9.087962413E-2
1.134989950E1,1.450643130E-2,-7.212967426E-2,4.167617857E-2,8.455785190E-2
1.135985650E1,5.624257028E-3,-6.743718684E-2,4.249216989E-2,7.990613830E-2
1.136981450E1,-7.520047016E-3,-7.216408104E-2,3.792846203E-2,8.187047045E-2
1.137977150E1,-1.417795010E-2,-6.758450717E-2,3.214540705E-2,7.617090700E-2
1.138972950E1,-1.770751551E-2,-6.395124644E-2,2.574608847E-2,7.117709673E-2
1.139968650E1,-2.351986431E-2,-6.040018797E-2,2.263471857E-2,6.865637049E-2
1.140964450E1,-2.112001553E-2,-5.587514490E-2,1.736813411E-2,6.220722591E-2
1.141960150E1,-1.939322054E-2,-5.857772380E-2,1.209001616E-2,6.287778001E-2
1.142955950E1,-1.909519173E-2,-5.376785249E-2,1.091549359E-2,5.809265279E-2
1.143951650E1,-1.505917124E-2,-4.803646356E-2,2.576337196E-3,5.040751911E-2
1.144947450E1,-7.550212089E-3,-4.308530316E-2,-9.680399671E-4,4.375255595E-2
1.145943150E1,3.612694331E-3,-3.930547833E-2,-8.234473877E-3,4.032094676E-2
1.146938950E1,1.252930798E-2,-3.344266117E-2,-8.795743808E-3,3.677988925E-2
1.147934650E1,2.223466709E-2,-2.955977246E-2,-8.815716952E-3,3.802469506E-2
1.148930450E1,3.368856758E-2,-2.083890326E-2,-7.347490638E-3,4.028852310E-2
1.149926250E1,4.225143045E-2,-1.303930301E-2,-5.277149379E-3,4.453150687E-2
1.150921950E1,4.344139621E-2,-4.102786072E-3,-9.801358916E-3,4.472196770E-2
1.151917750E1,4.853495955E-2,4.484576639E-3,-8.584561758E-3,4.949190264E-2
1.152913450E1,4.586179182E-2,1.298526116E-2,-7.885917090E-3,4.831261372E-2
1.153909250E1,3.722675890E-2,2.344189771E-2,-1.060260739E-2,4.525228646E-2
1.154904950E1,2.023063228E-2,2.909763344E-2,-6.942030974E-3,3.611291387E-2
1.155900750E1,3.219159320E-3,3.832814842E-2,-5.188872106E-3,3.881152332E-2
1.156896450E1,-1.492043957E-2,4.417078570E-2,-7.732232101E-3,4.725955183E-2
1.157892250E1,-3.779486194E-2,5.437921733E-2,-1.042868290E-2,6.703960243E-2
1.158887950E1,-5.362165719E-2,6.293175370E-2,-1.157325506E-2,8.348429778E-2
1.159883750E1,-7.188455015E-2,7.104320824E-2,-1.128643192E-2,1.016951795E-1
1.160879450E1,-8.704814315E-2,7.773419470E-2,-8.590146899E-3,1.170204037E-1
1.161875250E1,-9.706962109E-2,8.804515749E-2,-1.151003689E-2,1.315558514E-1
1.162870950E1,-1.071203202E-1,9.481310844E-2,-1.653693430E-2,1.440061066E-1
1.163866787E1,-1.085230038E-1,1.015224084E-1,-2.030344307E-2,1.499875713E-1
1.164862487E1,-1.104395837E-1,1.079781726E-1,-2.390269004E-2,1.562930772E-1
1.165858287E1,-1.077367440E-1,1.149141118E-1,-2.685853280E-2,1.597931159E-1
1.166853987E1,-1.022635847E-1,1.180475503E-1,-3.284602612E-2,1.595992680E-1
1.167849787E1,-9.212546796E-2,1.219024807E-1,-3.944320977E-2,1.578071084E-1
1.168845487E1,-8.121370524E-2,1.288633496E-1,-4.470664635E-2,1.587454346E-1
1.169841287E1,-7.015545666E-2,1.314985454E-1,-4.749977216E-2,1.564285265E-1
1.170836987E1,-5.489891768E-2,1.370184273E-1,-5.225946754E-2,1.565854160E-1
1.171832787E1,-4.459993914E-2,1.376719624E-1,-5.385630578E-2,1.544125172E-1
1.172828487E1,-3.241268545E-2,1.382373273E-1,-5.431720242E-2,1.520213779E-1
1.173824287E1,-1.503582671E-2,1.409175396E-1,-5.772126094E-2,1.530214789E-1
1.174819988E1,-4.282608163E-3,1.401202381E-1,-5.785617977E-2,1.516553968E-1
1.175815787E1,2.859990112E-3,1.361369491E-1,-6.108260155E-2,1.492398494E-1
1.176811487E1,1.005896740E-2,1.315303892E-1,-6.386721134E-2,1.465620919E-1
1.177807287E1,1.052209176E-2,1.266504079E-1,-6.244721264E-2,1.416004753E-1
1.178803087E1,7.010768168E-3,1.230031028E-1,-5.753493682E-2,1.359749357E-1
1.179798787E1,4.238151014E-3,1.167422831E-1,-5.480732396E-2,1.290370697E-1
1.180794587E1,-5.875281990E-3,1.115093157E-1,-5.152544379E-2,1.229785257E-1
1.181790287E1,-1.342348009E-2,1.047725901E-1,-5.136618763E-2,1.174562501E-1
1.182786087E1,-2.382053807E-2,9.338136017E-2,-5.032143742E-2,1.087186439E-1
1.183781787E1,-3.071146645E-2,8.711946756E-2,-4.626597464E-2,1.033128076E-1
1.184777587E1,-4.552912340E-2,7.569028437E-2,-3.706457838E-2,9.578989089E-2
1.185773287E1,-5.444565415E-2,6.425200403E-2,-2.693391591E-2,8.841993612E-2
1.186769087E1,-6.526801735E-2,5.420543253E-2,-2.745597996E-2,8.917384056E-2
1.187764787E1,-6.757591665E-2,4.500740767E-2,-2.762455679E-2,8.576297216E-2
1.188760587E1,-7.394735515E-2,3.095209971E-2,-2.699728496E-2,8.458780767E-2
1.189756287E1,-7.701797783E-2,1.951248944E-2,-2.422546409E-2,8.306250215E-2
1.190752087E1,-8.240627497E-2,6.945627742E-3,-2.043889835E-2,8.518676227E-2
1.191747787E1,-7.815586776E-2,-3.957886249E-3,-1.673816890E-2,8.002606342E-2
1.192743587E1,-7.147434354E-2,-1.438216772E-2,-1.804404333E-2,7.510669765E-2
1.193739287E1,-6.482097507E-2,-2.461563051E-2,-2.341590449E-2,7.318464769E-2
1.194735087E1,-4.775694758E-2,-3.635811806E-2,-2.418638207E-2,6.471182170E-2
1.195730787E1,-3.649044037E-2,-4.690423608E-2,-2.391474135E-2,6.405836756E-2
1.196726587E1,-2.673768252E-2,-5.423008651E-2,-1.944454759E-2,6.351296230E-2
1.197722287E1,-1.132383943E-2,-6.098546088E-2,-1.537923235E-2,6.390599788E-2
1.198718087E1,4.374785349E-3,-6.947410107E-2,-1.888610795E-2,7.212818131E-2
1.199713787E1,2.073351666E-2,-7.591202855E-2,-1.631615870E-2,8.036623561E-2
1.200709587E1,3.769937530E-2,-8.391435444E-2,-2.104282193E-2,9.436981580E-2
1.201705287E1,4.753789306E-2,-9.367723763E-2,-1.681452058E-2,1.063861092E-1
1.202701087E1,5.511218309E-2,-9.957992285E-2,-1.315918099E-2,1.145717147E-1
1.203696787E1,5.870825052E-2,-1.031413674E-1,-5.744940601E-3,1.188183685E-1
1.204692587E1,5.734647810E-2,-1.053539068E-1,-3.538528457E-3,1.200024392E-1
1.205688287E1,5.646151304E-2,-1.133282110E-1,-3.651979379E-3,1.266669760E-1
1.206684087E1,5.301947147E-2,-1.150747240E-1,-5.188073963E-3,1.268076203E-1
1.207679887E1,4.790487140E-2,-1.103798375E-1,-4.401896149E-4,1.203277981E-1
1.208675587E1,3.982298076E-2,-1.051173732E-1,1.499027945E-2,1.134030000E-1
1.209671387E1,3.366735205E-2,-1.062382981E-1,2.185191400E-2,1.135674809E-1
1.210667087E1,2.674952522E-2,-1.042185128E-1,2.457591146E-2,1.103676172E-1
1.211662887E1,2.557960153E-2,-1.034991890E-1,3.273237497E-2,1.115249143E-1
1.212658587E1,2.109830827E-2,-1.007943600E-1,3.039826825E-2,1.073717670E-1
1.213654387E1,1.325103920E-2,-9.504938871E-2,3.195142373E-2,1.011477623E-1
1.214650087E1,6.595498882E-3,-8.830128610E-2,4.129005596E-2,9.770100539E-2
1.215645887E1,5.684988573E-4,-8.382318169E-2,4.782332107E-2,9.650761119E-2
1.216641587E1,-9.699934162E-4,-7.577338815E-2,5.060381815E-2,9.112241025E-2
1.217637388E1,4.494721070E-4,-6.939352304E-2,4.874572903E-2,8.480453504E-2
1.218633087E1,9.784335271E-4,-6.189595163E-2,4.159872234E-2,7.458230260E-2
1.219628887E1,1.232296694E-2,-5.911508203E-2,3.949961811E-2,7.215724682E-2
1.220624587E1,2.161441743E-2,-5.148874968E-2,4.273688048E-2,7.031866991E-2
1.221620387E1,3.276241198E-2,-4.496613145E-2,4.732950032E-2,7.304389240E-2
1.222616087E1,4.379658401E-2,-4.234240577E-2,4.949604347E-2,7.849126331E-2
1.223611887E1,5.697790161E-2,-3.677293658E-2,4.221283272E-2,7.987899212E-2
1.224607587E1,7.201011479E-2,-3.189831227E-2,3.000603989E-2,8.428120424E-2
1.225603387E1,8.226062357E-2,-2.867881395E-2,2.475242317E-2,9.056471174E-2
1.226599087E1,8.915581554E-2,-1.910760626E-2,2.991473489E-2,9.596223958E-2
1.227594887E1,9.246718884E-2,-1.071545389E-2,3.323676437E-2,9.884171421E-2
1.228590587E1,9.148503095E-2,-3.494991921E-3,3.412701935E-2,9.770557459E-2
1.229586387E1,9.340330213E-2,3.114707768E-3,2.854796499E-2,9.771829183E-2
1.230582087E1,9.143628925E-2,6.589841563E-3,1.789965853E-2,9.340459721E-2
1.231577887E1,8.743009716E-2,1.095209923E-2,1.396137476E-2,8.921261319E-2
1.232573587E1,8.083628863E-2,1.783962175E-2,1.831148379E-2,8.478247521E-2
1.233569387E1,7.242123038E-2,2.452202514E-2,2.765971236E-2,8.130943373E-2
1.234565087E1,6.189196929E-2,2.431869507E-2,3.484664112E-2,7.507531679E-2
1.235560887E1,5.419809744E-2,2.189388871E-2,2.937784232E-2,6.542043831E-2
1.236556587E1,4.456854612E-2,1.634679735E-2,2.159473859E-2,5.215271633E-2
1.237552388E1,3.065698966E-2,1.522800326E-2,1.709293202E-2,3.826109543E-2
1.238548187E1,1.700421423E-2,1.756667905E-2,2.632351220E-2,3.592574019E-2
1.239543887E1,3.872166388E-3,1.601592079E-2,4.265561327E-2,4.572750523E-2
1.240539687E1,-9.757436812E-3,1.691041514E-2,4.477860034E-2,4.884969561E-2
1.241535387E1,-1.701801270E-2,1.319530513E-2,4.147228599E-2,4.672985490E-2
1.242531187E1,-2.294686064E-2,1.374534797E-2,3.453446552E-2,4.368205939E-2
1.243526887E1,-2.430800162E-2,1.560689695E-2,3.174080700E-2,4.291774696E-2
1.244522687E1,-2.657512762E-2,1.432265155E-2,3.983035684E-2,4.997832611E-2
1.245518387E1,-2.126451954E-2,1.649179682E-2,5.032214522E-2,5.706555400E-2
1.246514187E1,-1.371419430E-2,1.728590205E-2,4.837526381E-2,5.316998856E-2
1.247509887E1,-2.888711169E-3,1.799323782E-2,3.805337846E-2,4.219195269E-2
1.248505687E1,8.599273860E-3,1.785853691E-2,2.236106992E-2,2.988130351E-2
1.249501387E1,2.020266652E-2,2.110093646E-2,1.794555038E-2,3.428469093E-2
1.250497187E1,2.926345728E-2,3.059765697E-2,2.024179325E-2,4.692863452E-2
1.251492887E1,3.591523319E-2,3.620148078E-2,2.668424696E-2,5.755432409E-2
1.252488687E1,4.437927902E-2,4.320304841E-2,2.436162159E-2,6.655458214E-2
1.253484387E1,5.062998086E-2,4.177186638E-2,1.647014171E-2,6.767236771E-2
1.254480187E1,5.246410519E-2,4.697171226E-2,7.361257449E-3,7.080262846E-2
1.255475887E1,5.395308137E-2,5.774792656E-2,2.574757673E-3,7.907203923E-2
1.256471687E1,5.102033168E-2,6.253385544E-2,4.591144156E-3,8.083709498E-2
1.257467388E1,4.378692061E-2,6.145501137E-2,3.502177540E-3,7.553991055E-2
1.258463187E1,4.029035941E-2,5.940225348E-2,2.435565926E-3,7.181833165E-2
1.259458887E1,3.169260919E-2,6.014820188E-2,-1.166693773E-2,6.898075893E-2
1.260454687E1,2.030874416E-2,6.113530695E-2,-1.822724193E-2,6.694925836E-2
1.261450387E1,7.839824073E-3,6.552153081E-2,-2.180626616E-2,6.949854016E-2
1.262446187E1,-1.202833094E-2,6.770393997E-2,-2.007504366E-2,7.163456995E-2
1.263441887E1,-2.198322676E-2,6.641976535E-2,-1.604142040E-2,7.177865043E-2
1.264437596E1,-3.509955108E-2,6.524860114E-2,-1.590536907E-2,7.577822380E-2
1.265433296E1,-4.939939454E-2,6.029112637E-2,-1.760206744E-2,7.990715161E-2
1.266429096E1,-6.288300455E-2,5.904430524E-2,-1.772104204E-2,8.805985222E-2
1.267424796E1,-7.345974445E-2,5.935696140E-2,-2.052322030E-2,9.664773920E-2
1.268420596E1,-8.007653058E-2,5.951383710E-2,-1.776797324E-2,1.013402606E-1
1.269416396E1,-8.359536529E-2,6.023502350E-2,-1.500494312E-2,1.041229632E-1
1.270412096E1,-8.529278636E-2,5.517968163E-2,-1.582027785E-2,1.028102031E-1
1.271407896E1,-8.293828368E-2,4.903123900E-2,-1.631961949E-2,9.771975890E-2
1.272403596E1,-7.292000204E-2,4.670845345E-2,-2.181566134E-2,8.930246022E-2
1.273399396E1,-6.516860425E-2,4.209346324E-2,-2.624662593E-2,8.190050061E-2
1.274395096E1,-5.177253112E-2,3.630837426E-2,-3.166005760E-2,7.071811838E-2
1.275390896E1,-3.704045713E-2,3.066806495E-2,-3.182464093E-2,5.766570421E-2
1.276386596E1,-2.448366955E-2,2.236415260E-2,-2.550363168E-2,4.183348688E-2
1.277382396E1,-1.924789324E-2,1.827167347E-2,-2.678807452E-2,3.770857174E-2
1.278378096E1,-9.504551068E-3,1.279995032E-2,-2.938281000E-2,3.342939937E-2
1.279373896E1,-7.749794517E-3,7.763113827E-3,-3.479781374E-2,3.648579302E-2
1.280369596E1,-3.292199224E-3,8.223588811E-4,-4.015655443E-2,4.029967386E-2
1.281365396E1,-4.410460591E-3,-3.949759528E-3,-3.877224028E-2,3.922166977E-2
1.282361096E1,-4.287226591E-3,-1.038053352E-2,-3.776891902E-2,3.940338859E-2
1.283356896E1,-9.717945009E-3,-1.792127453E-2,-4.399565607E-2,4.848946576E-2
1.284352596E1,-1.478293724E-2,-2.462278865E-2,-5.059089139E-2,5.817435213E-2
1.285348396E1,-2.164190821E-2,-2.724680118E-2,-6.168961897E-2,7.082633306E-2
1.286344096E1,-2.941902913E-2,-2.951015532E-2,-6.557217985E-2,7.769195140E-2
1.287339896E1,-3.956620395E-2,-3.375842795E-2,-6.613037735E-2,8.413288751E-2
1.288335596E1,-5.577376485E-2,-3.397861868E-2,-5.571252853E-2,8.584372550E-2
1.289331396E1,-7.429391891E-2,-3.750650957E-2,-4.832864553E-2,9.623919485E-2
1.290327096E1,-8.461544663E-2,-3.446152806E-2,-4.461649060E-2,1.016759655E-1
1.291322896E1,-9.534186125E-2,-3.188199177E-2,-4.475044459E-2,1.100415112E-1
1.292318596E1,-1.051631421E-1,-2.690092660E-2,-4.273596406E-2,1.166589428E-1
1.293314396E1,-1.108266190E-1,-2.341111936E-2,-3.749726713E-2,1.193174967E-1
1.294310096E1,-1.107829660E-1,-1.720131002E-2,-2.902183309E-2,1.158059473E-1
1.295305896E1,-1.099866778E-1,-1.586972922E-2,-2.881170809E-2,1.147999657E-1
1.296301596E1,-1.041958034E-1,-1.282121520E-2,-2.995472215E-2,1.091715823E-1
1.297297396E1,-9.551390260E-2,-1.220815536E-2,-3.488050401E-2,1.024138380E-1
1.298293096E1,-8.383399248E-2,-5.067310296E-3,-3.448136151E-2,9.078975835E-2
1.299288896E1,-6.926916540E-2,3.545352956E-3,-2.950524725E-2,7.537470675E-2
1.300284596E1,-5.348390341E-2,5.992030725E-3,-2.023514174E-2,5.749689833E-2
1.301280396E1,-3.381912410E-2,5.734236445E-3,-1.182674244E-2,3.628341852E-2
1.302276196E1,-1.652870327E-2,9.782624431E-3,-1.112349611E-2,2.219526838E-2
1.303271896E1,3.467374481E-3,9.329088964E-3,-9.872608818E-3,1.401866583E-2
1.304267696E1,1.474388503E-2,1.464544050E-2,-4.028741270E-3,2.116841585E-2
1.305263396E1,2.933081798E-2,1.509365067E-2,-1.011108980E-4,3.298674578E-2
1.306259196E1,4.261158034E-2,7.309322245E-3,6.512133405E-4,4.323883728E-2
1.307254896E1,4.980451241E-2,5.215012468E-3,-4.779668525E-4,5.007908010E-2
1.308250696E1,5.073083937E-2,3.128004260E-3,-7.238732651E-3,5.134005965E-2
1.309246396E1,5.161740631E-2,9.503375040E-4,-1.150911115E-2,5.289347233E-2
1.310242196E1,5.207698047E-2,-3.381746123E-3,-1.211335789E-2,5.357407527E-2
1.311237896E1,5.091983825E-2,-6.847583689E-3,-1.422817353E-2,5.331191473E-2
1.312233696E1,4.921140149E-2,-1.428431645E-2,-9.015726857E-3,5.202967484E-2
1.313229396E1,4.653599113E-2,-2.625096589E-2,-1.002187002E-2,5.436128733E-2
1.314225196E1,3.890019283E-2,-3.377000988E-2,-8.494920097E-3,5.220921601E-2
1.315220896E1,2.619851008E-2,-4.017224908E-2,-5.231216550E-3,4.824455568E-2
1.316216696E1,1.213861909E-2,-3.897329420E-2,2.245341428E-3,4.088160090E-2
1.317212396E1,-1.245630439E-3,-3.995972872E-2,2.653071657E-3,4.006707256E-2
1.318208196E1,-1.570767723E-2,-4.692641646E-2,3.593008965E-3,4.961581803E-2
1.319203896E1,-2.939898893E-2,-4.828276485E-2,6.803982425E-3,5.693698366E-2
1.320199696E1,-3.627481684E-2,-4.807834700E-2,7.217638195E-3,6.065875112E-2
1.321195396E1,-3.751158714E-2,-5.126775056E-2,9.351896122E-3,6.421027471E-2
1.322191196E1,-3.227305412E-2,-5.462203175E-2,1.386391371E-2,6.494093068E-2
1.323186896E1,-2.166035771E-2,-6.057659164E-2,1.678620093E-2,6.648662341E-2
1.324182696E1,-4.100616556E-3,-6.395647675E-2,1.489313878E-2,6.579552840E-2
1.325178396E1,9.192552418E-3,-6.397138536E-2,1.720582880E-2,6.687960608E-2
1.326174196E1,2.436706424E-2,-6.323911995E-2,2.288773283E-2,7.153173020E-2
1.327169896E1,3.632199392E-2,-5.577481166E-2,3.109027073E-2,7.346238351E-2
1.328165696E1,5.151008815E-2,-5.002861470E-2,3.785128891E-2,8.117186423E-2
1.329161396E1,6.636413932E-2,-4.721258953E-2,3.853838146E-2,9.010235537E-2
1.330157196E1,8.425737917E-2,-4.591860622E-2,4.079210013E-2,1.042680190E-1
1.331152996E1,9.649327397E-2,-4.471858591E-2,4.392797127E-2,1.150668089E-1
1.332148696E1,1.037100703E-1,-4.377156124E-2,4.333407432E-2,1.206215994E-1
1.333144496E1,1.054714918E-1,-4.062397033E-2,4.644011706E-2,1.221934001E-1
1.334140196E1,1.105000600E-1,-3.856728971E-2,4.524431750E-2,1.254780752E-1
1.335135996E1,1.089458391E-1,-3.867700696E-2,4.108498991E-2,1.226910067E-1
1.336131696E1,1.016916782E-1,-3.223092109E-2,3.531046584E-2,1.123692960E-1
1.337127496E1,9.369367361E-2,-2.726838738E-2,3.477623314E-2,1.035927402E-1
1.338123196E1,8.353102952E-2,-1.877995208E-2,3.710634634E-2,9.331130924E-2
1.339118996E1,7.185280323E-2,-1.471357048E-2,3.642217815E-2,8.188949596E-2
1.340114696E1,6.188415736E-2,-1.315112505E-2,3.620708734E-2,7.289413005E-2
1.341110496E1,5.097345263E-2,-8.620555513E-3,3.940474242E-2,6.500261976E-2
1.342106196E1,3.777606040E-2,-6.018616259E-3,3.810502961E-2,5.399303439E-2
1.343101996E1,2.065460011E-2,-5.350428633E-3,3.966031596E-2,4.503532230E-2
1.344097696E1,1.691748388E-3,-2.414380666E-3,3.769569099E-2,3.781079695E-2
1.345093496E1,-1.198092010E-2,2.438202500E-6,3.879957274E-2,4.060725670E-2
1.346089196E1,-2.194479294E-2,7.212234661E-3,3.294302523E-2,4.023472601E-2
1.347084996E1,-3.890593350E-2,9.118791670E-3,2.981354669E-2,4.985651000E-2
1.348080696E1,-4.146061093E-2,1.492711529E-2,2.767564915E-2,5.203597395E-2
1.349076496E1,-3.980971128E-2,1.743847504E-2,2.563646808E-2,5.045931053E-2
1.350072196E1,-2.986885607E-2,2.352521755E-2,2.534219623E-2,4.569257416E-2
1.351067996E1,-1.821566187E-2,2.815698646E-2,2.539253049E-2,4.206431776E-2
1.352063696E1,-1.514431089E-3,2.918242663E-2,3.131076321E-2,4.282839500E-2
1.353059496E1,1.312709693E-2,3.193001077E-2,3.610898182E-2,4.995702983E-2
1.354055196E1,2.853170782E-2,3.776063025E-2,3.825340793E-2,6.085430770E-2
1.355050996E1,3.960992396E-2,4.315379634E-2,3.829122707E-2,6.998152818E-2
1.356046696E1,5.212961510E-2,4.449821636E-2,3.624229133E-2,7.753123055E-2
1.357042496E1,6.053349003E-2,4.973159358E-2,3.556984290E-2,8.603922675E-2
1.358038196E1,6.522899866E-2,5.029397458E-2,3.594931588E-2,8.987023677E-2
1.359033996E1,7.504966855E-2,5.355315283E-2,3.460442275E-2,9.847770814E-2
1.360029696E1,7.861546427E-2,5.239912122E-2,3.124668263E-2,9.951087530E-2
1.361025496E1,8.441290259E-2,5.221722648E-2,2.895157039E-2,1.033942469E-1
1.362021296E1,8.017350733E-2,5.117129907E-2,2.125322074E-2,9.745764474E-2
1.363016996E1,7.648634911E-2,5.112948641E-2,1.731919870E-2,9.361805715E-2
1.364012796E1,6.787449867E-2,5.123478174E-2,2.022626996E-2,8.741311358E-2
1.365008496E1,5.232323706E-2,4.796868190E-2,1.556627266E-2,7.267065725E-2
1.366004296E1,3.548598662E-2,4.329233244E-2,1.106294245E-2,5.706023125E-2
1.366999996E1,1.352582686E-2,3.897295147E-2,4.256967921E-3,4.147240907E-2
1.367995796E1,-7.918905467E-3,3.663870320E-2,-2.509649843E-3,3.756863024E-2
1.368991496E1,-3.084872290E-2,3.210600466E-2,-8.155018091E-3,4.526525776E-2
1.369987296E1,-5.319361389E-2,2.988939732E-2,-1.099244971E-2,6.199814982E-2
1.370982996E1,-7.296199352E-2,2.347757109E-2,-1.970205083E-2,7.913797855E-2
1.371978796E1,-8.672253788E-2,1.710421778E-2,-2.178395353E-2,9.103786835E-2
1.372974496E1,-9.718369693E-2,1.556784101E-2,-2.709323354E-2,1.020836516E-1
1.373970296E1,-1.008326709E-1,1.171038765E-2,-3.379281983E-2,1.069874543E-1
1.374965996E1,-1.013458669E-1,1.271333452E-2,-3.644639626E-2,1.084479295E-1
1.375961796E1,-9.699845314E-2,1.140019298E-2,-3.175701573E-2,1.026994273E-1
1.376957496E1,-8.629439771E-2,1.466895640E-2,-2.966323867E-2,9.242190805E-2
1.377953296E1,-7.675967366E-2,1.355908811E-2,-2.946683951E-2,8.333181266E-2
1.378948996E1,-5.831994861E-2,1.026129629E-2,-3.530076146E-2,6.893949788E-2
1.379944796E1,-4.864732921E-2,1.130804047E-2,-3.235008568E-2,5.950598677E-2
1.380940496E1,-3.205823153E-2,1.083905715E-2,-3.222411871E-2,4.672910437E-2
1.381936296E1,-1.684785634E-2,1.224065386E-2,-2.599517629E-2,3.330815306E-2
1.382931996E1,-7.503777742E-4,6.143880077E-3,-2.768255398E-2,2.836607347E-2
1.383927796E1,1.098031551E-2,5.391028710E-3,-2.949890494E-2,3.193455671E-2
1.384923496E1,1.711570658E-2,-6.684616674E-4,-3.222278878E-2,3.649249744E-2
1.385919296E1,2.906592563E-2,-1.445169328E-3,-2.855788544E-2,4.077339044E-2
1.386914996E1,3.270274028E-2,-4.285696894E-3,-2.588886395E-2,4.192934171E-2
1.387910796E1,3.318113461E-2,-5.440523848E-3,-2.128002420E-2,3.979229101E-2
1.388906496E1,3.021756932E-2,-1.346809044E-2,-1.771911234E-2,3.752942709E-2
1.389902296E1,2.153974026E-2,-1.655562408E-2,-2.011343464E-2,3.380235720E-2
1.390897996E1,3.815870732E-3,-2.165371180E-2,-2.417102642E-2,3.267541312E-2
1.391893796E1,-1.515799016E-2,-2.287853137E-2,-2.500370704E-2,3.712650305E-2
1.392889496E1,-3.594262898E-2,-2.264736965E-2,-2.488359623E-2,4.923382264E-2
1.393885296E1,-5.190578848E-2,-2.627915144E-2,-2.807850204E-2,6.460036343E-2
1.394880996E1,-7.173621655E-2,-2.932580747E-2,-3.266659379E-2,8.410228355E-2
1.395876796E1,-8.506941050E-2,-3.374991193E-2,-3.669231385E-2,9.860115139E-2
1.396872596E1,-9.981879592E-2,-3.857103363E-2,-3.997066617E-2,1.142329673E-1
1.397868296E1,-1.075626612E-1,-3.750706464E-2,-3.927542269E-2,1.204950821E-1
1.398864096E1,-1.091986448E-1,-4.141312465E-2,-3.986344486E-2,1.234037485E-1
1.399859796E1,-1.009140834E-1,-3.724021837E-2,-3.812333941E-2,1.141221937E-1
1.400855596E1,-9.462688863E-2,-4.406696185E-2,-3.697738051E-2,1.107405610E-1
1.401851296E1,-8.237767965E-2,-4.621451348E-2,-4.107659310E-2,1.030007275E-1
1.402847096E1,-7.280787826E-2,-4.598308355E-2,-4.304200411E-2,9.627068726E-2
1.403842796E1,-5.947981030E-2,-4.371953756E-2,-4.317420721E-2,8.551758863E-2
1.404838596E1,-4.567237943E-2,-3.924995661E-2,-4.110599682E-2,7.291247020E-2
1.405834296E1,-2.569878474E-2,-3.819679096E-2,-4.278582335E-2,6.284941572E-2
1.406830096E1,-7.822049782E-3,-4.045408592E-2,-4.126702249E-2,5.831538970E-2
1.407825796E1,9.522695094E-3,-3.802439198E-2,-4.305615649E-2,5.822687282E-2
1.408821596E1,2.871343121E-2,-3.422246501E-2,-4.256826639E-2,6.170652759E-2
1.409817296E1,4.009462520E-2,-3.759133443E-2,-3.606171906E-2,6.573534039E-2
1.410813096E1,5.364345387E-2,-3.494761139E-2,-3.119159676E-2,7.121707234E-2
1.411808796E1,6.105857715E-2,-3.140418977E-2,-2.606872842E-2,7.344352647E-2
1.412804596E1,6.367912143E-2,-3.406175971E-2,-2.061563917E-2,7.510152169E-2
1.413800296E1,6.179051474E-2,-3.037558123E-2,-1.894373074E-2,7.141154375E-2
1.414796096E1,5.546071753E-2,-2.865464985E-2,-1.478333864E-2,6.415237524E-2
1.415791796E1,4.263767973E-2,-2.539030090E-2,-9.237902239E-3,5.047749944E-2
1.416787596E1,3.103401884E-2,-2.298493311E-2,-4.237284884E-3,3.885063782E-2
1.417783296E1,1.938392036E-2,-2.291943878E-2,9.010778740E-4,3.003080058E-2
1.418779096E1,6.753345951E-3,-1.910419390E-2,4.099905491E-4,2.026686947E-2
1.419774796E1,-4.902596585E-3,-1.745266281E-2,9.505618364E-4,1.815308404E-2
1.420770596E1,-1.715127379E-2,-1.646143571E-2,4.684047308E-3,2.422984435E-2
1.421766296E1,-2.453338355E-2,-8.989638649E-3,5.170250311E-3,2.663516472E-2
1.422762096E1,-3.394553065E-2,-5.954966880E-3,9.031301364E-3,3.562758883E-2
1.423757796E1,-3.971445933E-2,-5.678456277E-3,8.029993623E-3,4.091410445E-2
1.424753596E1,-4.299014807E-2,1.256148913E-3,8.810832165E-3,4.390172553E-2
1.425749296E1,-4.173419997E-2,4.664462525E-3,5.824097432E-3,4.239599944E-2
1.426745096E1,-3.639509529E-2,1.032767445E-2,6.613192149E-3,3.840570441E-2
1.427740896E1,-3.045155481E-2,1.661085337E-2,3.923990764E-3,3.490867146E-2
1.428736596E1,-1.722789556E-2,1.905030757E-2,4.235319793E-4,2.568840173E-2
1.429732396E1,-6.108133122E-3,2.426024899E-2,1.775085926E-3,2.508026916E-2
1.430728096E1,6.533892825E-3,2.615908347E-2,-1.305658370E-3,2.699433547E-2
1.431723896E1,2.135402896E-2,3.348845243E-2,-4.960335791E-4,3.972048651E-2
1.432719596E1,3.781955317E-2,3.794685006E-2,8.328836411E-4,5.358148679E-2
1.433715396E1,5.048013851E-2,4.321417958E-2,6.621939596E-3,6.677993549E-2
1.434711096E1,6.334640086E-2,4.704353958E-2,6.509287748E-3,7.917216648E-2
1.435706896E1,7.518441975E-2,4.822757840E-2,1.456588320E-2,9.050282452E-2
1.436702596E1,8.121434599E-2,5.127397180E-2,1.497973781E-2,9.720690677E-2
1.437698396E1,8.280310035E-2,4.985489696E-2,1.662437990E-2,9.807259651E-2
1.438694096E1,8.564762771E-2,5.167516693E-2,2.225430310E-2,1.024748409E-1
1.439689896E1,8.366224170E-2,5.237318203E-2,2.394567616E-2,1.015663147E-1
1.440685596E1,8.013169467E-2,5.255001783E-2,2.752549760E-2,9.970078176E-2
1.441681396E1,7.579500228E-2,5.666680634E-2,3.145822883E-2,9.972777684E-2
1.442677096E1,6.514635682E-2,5.406622961E-2,3.295359388E-2,9.084681800E-2
1.443672896E1,5.386414751E-2,5.710068345E-2,4.025103524E-2,8.821553308E-2
1.444668596E1,4.084661603E-2,5.546603724E-2,4.830976203E-2,8.413536971E-2
1.445664396E1,2.227379009E-2,5.366967246E-2,5.226821080E-2,7.815702993E-2
1.446660096E1,1.003523450E-2,5.765402690E-2,5.278246850E-2,7.880787860E-2
1.447655896E1,7.369043306E-4,5.382650346E-2,5.187948048E-2,7.476172816E-2
1.448651596E1,-9.240362793E-3,4.848713055E-2,4.979555681E-2,7.011407571E-2
1.449647396E1,-1.578791067E-2,4.431847855E-2,5.662125722E-2,7.361625115E-2
1.450643096E1,-2.457421273E-2,4.007979482E-2,5.467954651E-2,7.211195941E-2
1.451638896E1,-2.537706494E-2,3.904802725E-2,4.947456345E-2,6.794465605E-2
1.452634596E1,-2.547853068E-2,3.622960299E-2,4.357086867E-2,6.213018795E-2
1.453630396E1,-2.007089928E-2,3.277186677E-2,3.724978864E-2,5.351993090E-2
1.454626096E1,-9.494953789E-3,2.641676553E-2,3.671289608E-2,4.621510994E-2
1.455621896E1,-1.774885226E-3,1.927576028E-2,3.606602922E-2,4.093242743E-2
1.456617596E1,8.003976196E-3,1.449032594E-2,3.742157668E-2,4.091952568E-2
1.457613396E1,2.100161836E-2,8.690920658E-3,3.669671714E-2,4.316536951E-2
1.458609096E1,3.299170360E-2,1.389775425E-4,3.452091664E-2,4.775107859E-2
1.459604896E1,4.325589165E-2,-4.554316867E-3,2.971924841E-2,5.267872142E-2
1.460600696E1,5.002458021E-2,-9.462522343E-3,2.385070547E-2,5.622147371E-2
1.461596396E1,5.604197830E-2,-1.266003773E-2,2.341006324E-2,6.204039771E-2
1.462592196E1,4.950471967E-2,-1.506274100E-2,2.259620279E-2,5.646407546E-2
1.463587896E1,5.225031823E-2,-2.290773019E-2,1.875921153E-2,6.005637247E-2
1.464583787E1,5.170090869E-2,-2.659327909E-2,1.225630473E-2,5.941719834E-2
1.465579487E1,5.149586499E-2,-3.320845217E-2,5.870736204E-3,6.155559235E-2
1.466575287E1,4.551094398E-2,-3.438983113E-2,6.883270107E-3,5.745681782E-2
1.467570987E1,3.820199519E-2,-3.914333507E-2,1.735650934E-2,5.738328619E-2
1.468566787E1,2.047759295E-2,-4.170316458E-2,2.444371395E-2,5.249743708E-2
1.469562487E1,6.882051006E-3,-4.086189345E-2,2.773330733E-2,4.986174182E-2
1.470558287E1,-1.185674965E-2,-4.375008866E-2,2.421846613E-2,5.139247875E-2
1.471553987E1,-2.593616210E-2,-4.740166292E-2,1.848528162E-2,5.710786100E-2
1.472549787E1,-3.861493990E-2,-4.823842645E-2,2.206856385E-2,6.561311515E-2
1.473545487E1,-5.045604333E-2,-4.897285998E-2,2.328914776E-2,7.407116664E-2
1.474541287E1,-6.290126592E-2,-5.149700493E-2,2.731398307E-2,8.575875723E-2
1.475536987E1,-7.197546959E-2,-5.286226049E-2,2.841291390E-2,9.371328872E-2
1.476532787E1,-7.489056140E-2,-5.400369316E-2,1.516608335E-2,9.356818448E-2
1.477528487E1,-7.122435421E-2,-5.164440721E-2,4.807202145E-3,8.810881126E-2
1.478524287E1,-6.652920693E-2,-5.165212601E-2,2.085717861E-3,8.425216742E-2
1.479519987E1,-6.104665995E-2,-4.898128659E-2,5.524791777E-3,7.846263092E-2
1.480515787E1,-5.052983761E-2,-5.022711307E-2,1.062021777E-2,7.203343947E-2
1.481511487E1,-4.561381042E-2,-4.735543579E-2,1.119654160E-2,6.669722291E-2
1.482507287E1,-3.587915376E-2,-4.810697958E-2,5.706435069E-3,6.028398261E-2
1.483502987E1,-2.065997757E-2,-4.484823346E-2,-8.473334834E-3,5.009986149E-2
1.484498787E1,-7.804366760E-3,-4.549351707E-2,-1.590861380E-2,4.882266102E-2
1.485494487E1,-8.255802095E-5,-4.550652206E-2,-1.937697083E-2,4.946026045E-2
1.486490287E1,8.257398382E-3,-4.534673318E-2,-1.793806627E-2,4.945993389E-2
1.487485987E1,1.291143056E-2,-4.128143191E-2,-1.868103072E-2,4.711520528E-2
1.488481787E1,1.729472727E-2,-3.933040053E-2,-3.166180849E-2,5.337094822E-2
1.489477487E1,2.450755425E-2,-3.403029218E-2,-4.440043867E-2,6.107438051E-2
1.490473287E1,3.251115233E-2,-3.072823957E-2,-5.226714909E-2,6.879719912E-2
1.491469087E1,2.939937264E-2,-2.543424256E-2,-4.653174430E-2,6.063354710E-2
1.492464787E1,2.376252413E-2,-1.819390617E-2,-3.447455168E-2,4.565271611E-2
1.493460587E1,1.061235741E-2,-1.361390296E-2,-2.697904781E-2,3.202857325E-2
1.494456287E1,-3.322632518E-3,-1.193477865E-2,-2.586078644E-2,2.867506065E-2
1.495452087E1,-1.267565135E-2,-6.623611785E-3,-3.736012429E-2,4.000404051E-2
1.496447787E1,-2.200923115E-2,-2.624875633E-3,-4.023341089E-2,4.593499298E-2
1.497443587E1,-3.675525635E-2,-2.919400577E-4,-3.687331825E-2,5.206414983E-2
1.498439287E1,-5.408523977E-2,5.777670536E-3,-2.785904706E-2,6.111236487E-2
1.499435087E1,-7.242286950E-2,1.242970768E-2,-2.264376357E-2,7.689154498E-2
1.500430787E1,-8.240573108E-2,1.942956075E-2,-2.810537443E-2,8.920832034E-2
1.501426587E1,-8.352425694E-2,2.329760976E-2,-3.627884388E-2,9.399592881E-2
1.502422287E1,-8.196417242E-2,2.559378743E-2,-4.693041742E-2,9.785515620E-2
1.503418087E1,-7.677145302E-2,2.845842019E-2,-4.011793062E-2,9.117667485E-2
1.504413787E1,-7.361214608E-2,3.262174129E-2,-2.616243437E-2,8.466049272E-2
1.505409588E1,-6.859981269E-2,3.428139538E-2,-1.847594045E-2,7.888287992E-2
1.506405287E1,-6.323087960E-2,3.699409217E-2,-1.717578620E-2,7.524436605E-2
1.507401087E1,-5.120653659E-2,4.560013115E-2,-2.949166484E-2,7.464073718E-2
1.508396787E1,-3.641587496E-2,4.934133962E-2,-3.626222163E-2,7.124347312E-2
1.509392587E1,-2.775366977E-2,5.265941843E-2,-3.667702526E-2,6.991769960E-2
1.510388287E1,-1.739211008E-2,5.143383145E-2,-3.474862874E-2,6.446232784E-2
1.511384087E1,-4.903404508E-3,5.231063068E-2,-3.738674894E-2,6.448421864E-2
1.512379787E1,8.726654574E-3,5.334021151E-2,-4.443853348E-2,6.997225109E-2
1.513375587E1,2.075527236E-2,5.524186045E-2,-5.464822426E-2,8.042930369E-2
1.514371287E1,3.233256564E-2,5.538833514E-2,-6.089973077E-2,8.844229575E-2
1.515367087E1,4.128380865E-2,5.861576274E-2,-6.324234605E-2,9.560206500E-2
1.516362787E1,4.488706589E-2,5.986212194E-2,-5.505499244E-2,9.289442674E-2
1.517358587E1,3.984863311E-2,6.125522032E-2,-4.529743642E-2,8.597658590E-2
1.518354287E1,3.389380127E-2,6.229172274E-2,-4.383216053E-2,8.336849995E-2
1.519350087E1,2.814661339E-2,6.744501740E-2,-4.514773935E-2,8.590332116E-2
1.520345787E1,1.963861287E-2,6.921388954E-2,-4.584655538E-2,8.531204054E-2
1.521341587E1,1.013288833E-2,6.987540424E-2,-4.546885937E-2,8.398014477E-2
1.522337387E1,-8.060452528E-4,6.920162588E-2,-3.540663421E-2,7.773766449E-2
1.523333087E1,-1.159344614E-2,6.533285230E-2,-3.181350231E-2,7.358592605E-2
1.524328887E1,-2.254356444E-2,6.348009408E-2,-3.077273630E-2,7.406008331E-2
1.525324588E1,-2.685752511E-2,6.324381381E-2,-2.905189991E-2,7.459972875E-2
1.526320387E1,-3.426643834E-2,5.431290343E-2,-3.022981808E-2,7.097832188E-2
1.527316087E1,-3.327058256E-2,4.941270500E-2,-2.552007884E-2,6.480602984E-2
1.528311887E1,-3.405541554E-2,4.501529038E-2,-1.548395399E-2,5.853119277E-2
1.529307587E1,-3.847351298E-2,3.899351507E-2,-1.119080931E-3,5.479012466E-2
1.530303387E1,-3.336929902E-2,3.402085975E-2,8.960983716E-3,4.848946529E-2
1.531299087E1,-2.992645279E-2,3.477434441E-2,1.301487349E-2,4.768893517E-2
1.532294887E1,-1.850788482E-2,2.871592343E-2,8.051007986E-3,3.509935595E-2
1.533290587E1,-6.259115878E-3,2.481673285E-2,7.216006052E-3,2.659168111E-2
1.534286387E1,4.337868653E-3,2.078816853E-2,1.303847507E-2,2.491920720E-2
1.535282087E1,1.347605139E-2,1.926705800E-2,2.088761888E-2,3.145021634E-2
1.536277887E1,2.722888067E-2,2.005961351E-2,2.083169296E-2,3.972102049E-2
1.537273587E1,3.879489750E-2,1.772807352E-2,1.568363607E-2,4.544562798E-2
1.538269387E1,5.308888108E-2,1.134554110E-2,6.050182972E-3,5.462376141E-2
1.539265087E1,6.460458040E-2,1.063066162E-2,3.324429505E-3,6.555771966E-2
1.540260887E1,6.862781197E-2,3.545854241E-3,1.179621089E-2,6.972445948E-2
1.541256587E1,6.619891524E-2,4.816721193E-3,2.673226595E-2,7.155495249E-2
1.542252387E1,6.336371601E-2,4.520311486E-3,3.422427177E-2,7.215742859E-2
1.543248087E1,6.412387639E-2,-2.759997733E-5,2.552514710E-2,6.901742838E-2
1.544243887E1,6.410922855E-2,-6.771788932E-3,1.272919029E-2,6.571059729E-2
1.545239588E1,5.921681225E-2,-8.994376287E-3,7.394622080E-3,6.035072571E-2
1.546235387E1,4.530685395E-2,-9.910503402E-3,1.829200983E-2,4.985505708E-2
1.547231087E1,3.299968690E-2,-7.487324066E-3,3.145850450E-2,4.620256337E-2
1.548226887E1,1.515330933E-2,-7.285988890E-3,3.936116770E-2,4.280198524E-2
1.549222587E1,5.285755731E-3,-1.198893879E-2,2.607754618E-2,2.918411009E-2
1.550218387E1,1.676930115E-4,-1.429709978E-2,1.425444148E-2,2.018970741E-2
1.551214087E1,-8.922021836E-3,-1.795692742E-2,1.564387977E-2,2.543196198E-2
1.552209887E1,-1.853896305E-2,-1.858756505E-2,2.560223639E-2,3.666967730E-2
1.553205587E1,-2.918378636E-2,-2.270031534E-2,4.876197502E-2,6.119418200E-2
1.554201387E1,-3.756795079E-2,-2.795526572E-2,5.790194497E-2,7.446800010E-2
1.555197187E1,-3.386466205E-2,-3.517831117E-2,5.066832900E-2,7.036766641E-2
1.556192887E1,-3.052372672E-2,-4.417952895E-2,3.948091716E-2,6.665036752E-2
1.557188687E1,-2.832420915E-2,-4.781837016E-2,3.788751736E-2,6.726307547E-2
1.558184387E1,-2.471083216E-2,-4.892837629E-2,4.778675362E-2,7.271990824E-2
1.559180187E1,-2.108779922E-2,-5.395345762E-2,5.988964811E-2,8.332131070E-2
1.560175887E1,-8.358687162E-3,-5.993625149E-2,6.106010452E-2,8.596835614E-2
1.561171687E1,1.142274868E-2,-6.857549399E-2,5.281481147E-2,8.730682604E-2
1.562167387E1,3.135943785E-2,-7.118060440E-2,4.188200086E-2,8.834135374E-2
1.563163187E1,4.848260432E-2,-7.337151468E-2,4.225889593E-2,9.756923887E-2
1.564158887E1,5.964524299E-2,-7.423517853E-2,5.295228586E-2,1.089603658E-1
1.565154683E1,6.777215004E-2,-7.599467784E-2,6.505966187E-2,1.208346597E-1
1.566150383E1,7.233281434E-2,-8.013696223E-2,6.475206465E-2,1.258840682E-1
1.567146183E1,7.987368852E-2,-8.286719769E-2,4.927317798E-2,1.251983412E-1
1.568141883E1,8.259863406E-2,-8.435297757E-2,3.679120913E-2,1.236590160E-1
1.569137683E1,8.188112825E-2,-8.043113351E-2,3.157940507E-2,1.190417793E-1
1.570133383E1,7.183142006E-2,-7.565155625E-2,3.754302114E-2,1.108710481E-1
1.571129183E1,5.980920047E-2,-7.357415557E-2,4.423540086E-2,1.046282348E-1
1.572124883E1,4.739674181E-2,-7.623012364E-2,3.718521446E-2,9.716081030E-2
1.573120683E1,3.877440095E-2,-7.627744973E-2,2.139322832E-2,8.820075807E-2
1.574116383E1,2.672759071E-2,-7.264889032E-2,1.530151442E-2,7.890729822E-2
1.575112183E1,1.410119608E-2,-6.632265449E-2,1.125570480E-2,6.873302786E-2
1.576107883E1,-1.885760576E-3,-6.189435720E-2,2.280663326E-2,6.598946937E-2
1.577103683E1,-2.174212039E-2,-5.971455202E-2,2.851563692E-2,6.965406715E-2
1.578099383E1,-3.792082518E-2,-5.774487555E-2,2.545033768E-2,7.362186715E-2
1.579095183E1,-4.627960175E-2,-5.136034638E-2,1.860001311E-2,7.159362546E-2
